{
  "Entity.Attribute": {
    "codelist_code": "Codelist C-code",
    "extensible": false,
    "values": [
      {
        "code": "Concept C-code",
        "term": "Preferred Term (CDISC Submission Value)",
        "synonyms": "Synonym(s)",
        "definition": "CDISC Definition"
      }
    ]
  },
  "StudyDefinitionDocumentVersion.status": {
    "codelist_code": "C188723",
    "extensible": false,
    "values": [
      {
        "code": "C25425",
        "term": "Approved",
        "synonyms": null,
        "definition": "Acceptance as satisfactory by an authoritative body; established by authority; given authoritative approval."
      },
      {
        "code": "C85255",
        "term": "Draft",
        "synonyms": null,
        "definition": "A preliminary version of a written work, design, or picture."
      },
      {
        "code": "C25508",
        "term": "Final",
        "synonyms": null,
        "definition": "Conclusive in a process or progression."
      },
      {
        "code": "C63553",
        "term": "Obsolete",
        "synonyms": null,
        "definition": "No longer in use or valid; old."
      },
      {
        "code": "C188862",
        "term": "Pending Review",
        "synonyms": "Draft Pending Review",
        "definition": "A preliminary version of a written work, design, or picture that is awaiting review."
      }
    ]
  },
  "Organization.type": {
    "codelist_code": "C188724",
    "extensible": true,
    "values": [
      {
        "code": "C93453",
        "term": "Clinical Study Registry",
        "synonyms": null,
        "definition": "An organization (typically a government agency) that administers the registration of studies. (BRIDG)"
      },
      {
        "code": "C70793",
        "term": "Clinical Study Sponsor",
        "synonyms": "Clinical Study Sponsor, Sponsor, Study Sponsor",
        "definition": "An individual, company, institution, or organization that takes responsibility for the initiation, management, and/or financing of a clinical study. [After ICH E6, WHO, 21 CFR 50.3 (e), and after IDMP]"
      },
      {
        "code": "C188863",
        "term": "Regulatory Agency",
        "synonyms": "Regulator, Regulatory Body",
        "definition": "An organization (typically a government agency) that is responsible for implementing and enforcing laws, licensing and regulating products and services, promoting the use of standards, and ensuring safety and consumer protections."
      },
      {
        "code": "C18240",
        "term": "Academic Institution",
        "synonyms": null,
        "definition": "An organization, such as a college or university, established for the purpose of scholastic pursuit, education, granting degrees, and research."
      },
      {
        "code": "C54148",
        "term": "Contract Research Organization",
        "synonyms": null,
        "definition": "A person or an organization (commercial, academic, or other) contracted by the sponsor to perform one or more of a sponsor's trial-related duties and functions. [ICH E6 Glossary]"
      },
      {
        "code": "C199144",
        "term": "Government Institute",
        "synonyms": null,
        "definition": "An organization established, funded, and overseen by a government, which has a specific purpose or intent."
      },
      {
        "code": "C21541",
        "term": "Healthcare Facility",
        "synonyms": null,
        "definition": "The buildings and organizations where healthcare services are provided."
      },
      {
        "code": "C37984",
        "term": "Laboratory",
        "synonyms": null,
        "definition": "An organization with the capability and competency to perform scientific research, experiments, and measurements. (BRIDG)"
      },
      {
        "code": "C215661",
        "term": "Medical Device Company",
        "synonyms": null,
        "definition": "A company licensed to discover, develop, market, and/or distribute medical devices."
      },
      {
        "code": "C54149",
        "term": "Pharmaceutical Company",
        "synonyms": null,
        "definition": "A company licensed to discover, develop, market, and/or distribute drugs."
      }
    ]
  },
  "Objective.level": {
    "codelist_code": "C188725",
    "extensible": false,
    "values": [
      {
        "code": "C163559",
        "term": "Exploratory Objective",
        "synonyms": "Study Exploratory Objective, Trial Exploratory Objective",
        "definition": "Additional scientific question(s) within the study that enable further discovery research, beyond the primary and secondary objectives."
      },
      {
        "code": "C85826",
        "term": "Study Primary Objective",
        "synonyms": "Study Primary Objective, Trial Primary Objective",
        "definition": "The main scientific question(s) the study is designed to answer. (CDISC Glossary)"
      },
      {
        "code": "C85827",
        "term": "Study Secondary Objective",
        "synonyms": "Study Secondary Objective, Trial Secondary Objective",
        "definition": "The supportive or ancillary scientific question(s) the study is designed to answer. (CDISC Glossary)"
      }
    ]
  },
  "Endpoint.level": {
    "codelist_code": "C188726",
    "extensible": false,
    "values": [
      {
        "code": "C170559",
        "term": "Exploratory Endpoint",
        "synonyms": null,
        "definition": "Endpoint(s) that may include clinically important events that are expected to occur too infrequently to show a treatment effect or endpoints that for other reasons are thought to be less likely to show an effect but are included to explore new hypotheses. (After FDA-NIH Protocol Template)"
      },
      {
        "code": "C94496",
        "term": "Primary Endpoint",
        "synonyms": null,
        "definition": "Endpoint(s) of greatest importance that is the basis for concluding whether the study met its objective(s) and provides a clinically relevant, valid, and reliable measure of the primary objective(s). (After FDA-NIH Protocol Template)"
      },
      {
        "code": "C139173",
        "term": "Secondary Endpoint",
        "synonyms": null,
        "definition": "Endpoint(s) that may provide supportive information about the effect of the study intervention(s) on the primary endpoint or demonstrate additional effects on the disease or condition. (After FDA-NIH Protocol Template)"
      }
    ]
  },
  "StudyArm.dataOriginType": {
    "codelist_code": "C188727",
    "extensible": true,
    "values": [
      {
        "code": "C188866",
        "term": "Data Generated Within Study",
        "synonyms": null,
        "definition": "Data that are generated from the current study."
      },
      {
        "code": "C188864",
        "term": "Historical Data",
        "synonyms": null,
        "definition": "Data from studies that have occurred in the past."
      },
      {
        "code": "C165830",
        "term": "Real World Data",
        "synonyms": null,
        "definition": "Data relating to patient health status and/or the delivery of health care routinely collected from sources other than traditional clinical trials. NOTE: Examples of sources include data derived from electronic health records (EHRs); medical claims and billing data; data from product and disease registries; patient-generated data, including from in-home-use settings; and data gathered from other sources that can inform on health status, such as mobile devices. [After 21 U.S.C. 355g(b)).5 and Framework for FDA's Real-World Evidence Program December 2018] See also Real-World Evidence (RWE)"
      },
      {
        "code": "C176263",
        "term": "Synthetic Data",
        "synonyms": null,
        "definition": "Data that are artificially created rather than being generated by actual events. NOTE: Data are often created with the help of algorithms and used for a wide range of activities, including as test data for new products and tools, for model validation, and in AI optimization. [After The Ultimate Guide to Synthetic Data in 2020, August 29, 2020]. See also artificial intelligence."
      },
      {
        "code": "C188865",
        "term": "Virtual Data",
        "synonyms": null,
        "definition": "Data that are generated from virtual encounters between investigators and subjects."
      }
    ]
  },
  "Encounter.type": {
    "codelist_code": "C188728",
    "extensible": true,
    "values": [
      {
        "code": "C25716",
        "term": "Visit",
        "synonyms": null,
        "definition": "The act of going to see some person or place or thing; it can cover a short or long period but refers to a non-permanent arrangement."
      }
    ]
  },
  "Timing.type": {
    "codelist_code": "C201264",
    "extensible": false,
    "values": [
      {
        "code": "C201356",
        "term": "After",
        "synonyms": null,
        "definition": "A type of time point relationship that follows a point or period of time within a timeline."
      },
      {
        "code": "C201357",
        "term": "Before",
        "synonyms": null,
        "definition": "A type of time point relationship that comes before a point or period of time within a timeline."
      },
      {
        "code": "C201358",
        "term": "Fixed Reference",
        "synonyms": null,
        "definition": "A type of time point relationship that is fixed with respect to a timeline."
      }
    ]
  },
  "Timing.relativeToFrom": {
    "codelist_code": "C201265",
    "extensible": false,
    "values": [
      {
        "code": "C201352",
        "term": "End to End",
        "synonyms": null,
        "definition": "A timing relationship defined as the end of one event to the end of another event."
      },
      {
        "code": "C201353",
        "term": "End to Start",
        "synonyms": null,
        "definition": "A timing relationship defined as the end of one event to the start of another event."
      },
      {
        "code": "C201354",
        "term": "Start to End",
        "synonyms": null,
        "definition": "A timing relationship defined as the start of one event to the end of another event."
      },
      {
        "code": "C201355",
        "term": "Start to Start",
        "synonyms": null,
        "definition": "A timing relationship defined as the start of one event to the start of another event."
      }
    ]
  },
  "GeographicScope.type": {
    "codelist_code": "C207412",
    "extensible": false,
    "values": [
      {
        "code": "C25464",
        "term": "Country",
        "synonyms": null,
        "definition": "A sovereign nation occupying a distinct territory and ruled by an autonomous government."
      },
      {
        "code": "C68846",
        "term": "Global",
        "synonyms": null,
        "definition": "Covering or affecting the whole of a system."
      },
      {
        "code": "C41129",
        "term": "Region",
        "synonyms": null,
        "definition": "An area or portion of something with more or less definite boundaries designed or specified according to some established criteria."
      }
    ]
  },
  "GovernanceDate.type": {
    "codelist_code": "C207413",
    "extensible": true,
    "values": [
      {
        "code": "C207598",
        "term": "Protocol Effective Date",
        "synonyms": null,
        "definition": "The date and time specifying when the protocol takes effect or becomes operative."
      },
      {
        "code": "C132352",
        "term": "Sponsor Approval Date",
        "synonyms": "Protocol Amendment Approval by Sponsor Date, Study Protocol Version Approval Date",
        "definition": "The date on which a version of the protocol was finalized or approved by the sponsor."
      },
      {
        "code": "C71476",
        "term": "Approval Date",
        "synonyms": null,
        "definition": "The date on which the entity receives official approbation, recognition, or acceptance as satisfactory."
      },
      {
        "code": "C215663",
        "term": "Effective Date",
        "synonyms": null,
        "definition": "The date on which the entity becomes active, goes into effect, or is slated to begin use."
      },
      {
        "code": "C215664",
        "term": "Issued Date",
        "synonyms": null,
        "definition": "The date on which the entity is officially released, made available, or delivered to its intended recipient."
      }
    ]
  },
  "StudyAmendmentReason.code": {
    "codelist_code": "C207415",
    "extensible": true,
    "values": [
      {
        "code": "C207600",
        "term": "Change In Standard Of Care",
        "synonyms": null,
        "definition": "A change in the standard of care necessitates a change(s) to, or formal clarification of, the protocol. (ICH M11)"
      },
      {
        "code": "C207601",
        "term": "Change In Strategy",
        "synonyms": null,
        "definition": "A change in the study purpose or intent of the scientific plan necessitates a change(s) to, or formal clarification of, the protocol. (ICH M11)"
      },
      {
        "code": "C207602",
        "term": "IMP Addition",
        "synonyms": null,
        "definition": "The addition of an investigational medicinal product to a clinical trial design necessitates a change(s) to, or formal clarification of, the protocol. (ICH M11)"
      },
      {
        "code": "C207603",
        "term": "Inconsistency And/or Error In The Protocol",
        "synonyms": null,
        "definition": "An error or inconsistency in the protocol necessitates a change(s) to, or formal clarification of, the protocol. (ICH M11)"
      },
      {
        "code": "C207604",
        "term": "Investigator/Site Feedback",
        "synonyms": null,
        "definition": "Feedback from the investigator or study site necessitates a change(s) to, or formal clarification of, the protocol. (ICH M11)"
      },
      {
        "code": "C207605",
        "term": "IRB/IEC Feedback",
        "synonyms": null,
        "definition": "Feedback from the institutional review board or independent ethics committee necessitates a change(s) to, or formal clarification of, the protocol. (ICH M11)"
      },
      {
        "code": "C207606",
        "term": "Manufacturing Change",
        "synonyms": null,
        "definition": "A change to manufacturing processes of the study agents necessitates a change(s) to, or formal clarification of, the protocol. (ICH M11)"
      },
      {
        "code": "C207607",
        "term": "New Data Available (Other Than Safety Data)",
        "synonyms": null,
        "definition": "Previously unavailable data (other than safety data) becomes available, which necessitates a change(s) to, or formal clarification of, the protocol. (ICH M11)"
      },
      {
        "code": "C207608",
        "term": "New Regulatory Guidance",
        "synonyms": null,
        "definition": "A regulatory agency has published a guidance document that necessitates a change(s) to, or formal clarification of, the protocol. (ICH M11)"
      },
      {
        "code": "C207609",
        "term": "New Safety Information Available",
        "synonyms": null,
        "definition": "Previously unavailable safety data becomes available, which necessitates a change(s) to, or formal clarification of, the protocol. (ICH M11)"
      },
      {
        "code": "C207610",
        "term": "Protocol Design Error",
        "synonyms": null,
        "definition": "A protocol design error necessitates a change(s) to, or formal clarification of, a document. (ICH M11)"
      },
      {
        "code": "C207611",
        "term": "Recruitment Difficulty",
        "synonyms": null,
        "definition": "Challenges with participant recruitment necessitates a change(s) to, or formal clarification of, the protocol. (ICH M11)"
      },
      {
        "code": "C207612",
        "term": "Regulatory Agency Request To Amend",
        "synonyms": null,
        "definition": "A regulatory agency has expressed a need for a change(s) to, or formal clarification of, the protocol. (ICH M11)"
      },
      {
        "code": "C48660",
        "term": "NOT APPLICABLE",
        "synonyms": "NA, Not Applicable",
        "definition": "Determination of a value is not relevant in the current context. (NCI)"
      },
      {
        "code": "C17649",
        "term": "OTHER",
        "synonyms": "Other",
        "definition": "Different than the one(s) previously specified or mentioned. (NCI)"
      }
    ]
  },
  "StudyDesign.characteristics": {
    "codelist_code": "C207416",
    "extensible": true,
    "values": [
      {
        "code": "C98704",
        "term": "Adaptive",
        "synonyms": null,
        "definition": "A study design that allows for prospectively planned modifications to one or more aspects of the design based on accumulating data from subjects in the trial. (FDA)"
      },
      {
        "code": "C207613",
        "term": "Extension",
        "synonyms": "Roll-over Study",
        "definition": "A study design in which subjects enrolled in one study are subsequently continued into a related study for longer term safety, tolerability, and/or effectiveness monitoring."
      },
      {
        "code": "C46079",
        "term": "Randomized",
        "synonyms": null,
        "definition": "A study design in which interventions are assigned to subjects according to randomization principles."
      },
      {
        "code": "C217005",
        "term": "Multicentre",
        "synonyms": null,
        "definition": "A clinical study conducted according to a single protocol but at more than one study site."
      },
      {
        "code": "C217007",
        "term": "Multiple Countries",
        "synonyms": null,
        "definition": "Of, or pertaining to, an occurrence in more than one country."
      },
      {
        "code": "C217006",
        "term": "Single Country",
        "synonyms": null,
        "definition": "Of, or pertaining to, an occurrence in one country."
      },
      {
        "code": "C217004",
        "term": "Single-Centre",
        "synonyms": null,
        "definition": "A clinical study that is conducted at a single study site."
      },
      {
        "code": "C25689",
        "term": "Stratification",
        "synonyms": null,
        "definition": "Grouping defined by important prognostic factors measured at baseline. (ICH E9)"
      },
      {
        "code": "C147145",
        "term": "Stratified Randomisation",
        "synonyms": null,
        "definition": "A type of block randomization in which participants are stratified into groups based on prognostic variables and then randomized into balanced treatment groups."
      }
    ]
  },
  "StudyIntervention.role": {
    "codelist_code": "C207417",
    "extensible": false,
    "values": [
      {
        "code": "C207614",
        "term": "Additional Required Treatment",
        "synonyms": null,
        "definition": "A medicinal product that must be administered along with the experimental treatment (e.g., drug studies wherein opioid blockers are administered to prevent overdose)."
      },
      {
        "code": "C165822",
        "term": "Background Treatment",
        "synonyms": null,
        "definition": "Medicinal products that are administered to each clinical trial subject, regardless of randomization group, a) to treat the indication which is the object of the study, or b) required in the protocol as part of standard care for a condition that is not the indication under investigation, and is relevant for the clinical trial design. [After Recommendations from the expert group on clinical trials for the implementation of Regulation (EU) No 536/2014' dd 28 June 2017]"
      },
      {
        "code": "C158128",
        "term": "Challenge Agent",
        "synonyms": null,
        "definition": "A non-investigational medicinal product (NIMP) given to trial subjects to produce a physiological response that is necessary before the pharmacological action of the investigational medicinal product can be assessed. [After Recommendations from the expert group on clinical trials for the implementation of Regulation (EU) No 536/2014' dd 28 June 2017]"
      },
      {
        "code": "C18020",
        "term": "Diagnostic",
        "synonyms": null,
        "definition": "Any procedure or test used to diagnose a disease or disorder."
      },
      {
        "code": "C41161",
        "term": "Experimental Intervention",
        "synonyms": "Investigational Interventional, Investigational Therapy or Treatment",
        "definition": "The drug, device, therapy, procedure, or process under investigation in a clinical study that is believed to have an effect on outcomes of interest in a study (e.g., health-related quality of life, efficacy, safety, pharmacoeconomics). [After https://grants.nih.gov/grants/policy/faq_clinical_trial_definition.htm#5224; https://grants.nih.gov/policy/clinical-trials/protocol-template.htm] See also test articles, devices, drug product, combination product, treatment, diagnosis. Contrast with investigational medicinal product."
      },
      {
        "code": "C753",
        "term": "Placebo",
        "synonyms": null,
        "definition": "A pharmaceutical preparation that does not contain the investigational agent and is generally prepared to be physically indistinguishable from the preparation containing the investigational product."
      },
      {
        "code": "C165835",
        "term": "Rescue Medicine",
        "synonyms": null,
        "definition": "Medicinal products identified in the protocol as those that may be administered to subjects when the efficacy of the investigational medicinal product (IMP) is not satisfactory, the effect of the IMP is too great and is likely to cause a hazard to the patient, or to manage an emergency situation. [After EU-CTR Recommendations from the expert group on clinical trials for the implementation of Regulation (EU) No 536/2014' dd 28 June 2017]"
      },
      {
        "code": "C68609",
        "term": "Active Comparator",
        "synonyms": "Active Control",
        "definition": "A type of control, which has a demonstrated effect, administered as a comparator to subjects in a clinical trial. [From ICH E10]"
      }
    ]
  },
  "AdministrableProduct.productDesignation": {
    "codelist_code": "C207418",
    "extensible": false,
    "values": [
      {
        "code": "C202579",
        "term": "IMP",
        "synonyms": null,
        "definition": "A medicinal product which is being tested or used as a reference, including as a placebo, in a clinical trial. (Regulation (EU) No 536/2014 Article 2 (5))"
      },
      {
        "code": "C156473",
        "term": "NIMP (AxMP)",
        "synonyms": null,
        "definition": "A medicinal product that is related to the specific needs of the clinical trial as described in the protocol, but not as an investigational medicinal product. NOTE: Auxiliary medicinal products may be authorised for marketing in a country or region or non-authorised. (CDISC Glossary)"
      }
    ]
  },
  "StudyTitle.type": {
    "codelist_code": "C207419",
    "extensible": false,
    "values": [
      {
        "code": "C207615",
        "term": "Brief Study Title",
        "synonyms": "Abbreviated Protocol Title",
        "definition": "The short descriptive name for the study."
      },
      {
        "code": "C207616",
        "term": "Official Study Title",
        "synonyms": null,
        "definition": "The formal descriptive name for the study."
      },
      {
        "code": "C207617",
        "term": "Public Study Title",
        "synonyms": null,
        "definition": "The descriptive name of the study that is intended for the lay public, written in easily understood language."
      },
      {
        "code": "C207618",
        "term": "Scientific Study Title",
        "synonyms": null,
        "definition": "A more extensive descriptive name of the study that is intended for medical professionals, written using medical and scientific language."
      },
      {
        "code": "C207646",
        "term": "Study Acronym",
        "synonyms": "Trial Acronym",
        "definition": "A word or words formed from the beginning letters or a combination of syllables and letters of a compound term, which identifies a clinical study."
      }
    ]
  },
  "StudyDefinitionDocument.type": {
    "codelist_code": "C215477",
    "extensible": true,
    "values": [
      {
        "code": "C70817",
        "term": "Protocol",
        "synonyms": null,
        "definition": "The formal plan of an experiment or research activity, including the objective, rationale, design, materials and methods for the conduct of the study, intervention description, and method of data analysis."
      }
    ]
  },
  "ReferenceIdentifier.type": {
    "codelist_code": "C215478",
    "extensible": true,
    "values": [
      {
        "code": "C142424",
        "term": "Clinical Development Plan",
        "synonyms": "CDP",
        "definition": "A document that describes the collection of clinical studies that are to be performed in sequence, or in parallel, with a particular active substance, device, procedure, or treatment strategy, typically with the intention of submitting them as part of an application for a marketing authorization. (CDISC Glossary)"
      },
      {
        "code": "C215674",
        "term": "Pediatric Investigation Plan",
        "synonyms": "PIP",
        "definition": "A development plan aimed at ensuring that the necessary data are obtained to support the authorisation of a medicine for children, through studies in children. (EMA)"
      }
    ]
  },
  "AdministrableProductProperty.type": {
    "codelist_code": "C215479",
    "extensible": true,
    "values": [
      {
        "code": "C45997",
        "term": "pH",
        "synonyms": "pH",
        "definition": "The negative logarithm (base 10) of the concentration of hydronium ions, which is used as a measure of the acidity or alkalinity of a fluid."
      }
    ]
  },
  "StudyRole.code": {
    "codelist_code": "C215480",
    "extensible": true,
    "values": [
      {
        "code": "C78726",
        "term": "Adjudication Committee",
        "synonyms": null,
        "definition": "An external committee whose purpose is to evaluate study data and decide whether a study endpoint or other criterion has been met. (NCI)"
      },
      {
        "code": "C17445",
        "term": "Care Provider",
        "synonyms": "Caregiver, Carer, Caretaker",
        "definition": "The primary person in charge of the care of a patient, usually a family member or a designated health care professional. (NCI)"
      },
      {
        "code": "C215672",
        "term": "Clinical Trial Physician",
        "synonyms": "Study Doctor",
        "definition": "Any physician that is associated with clinical trial."
      },
      {
        "code": "C215669",
        "term": "Co-Sponsor",
        "synonyms": null,
        "definition": "An individual, company, institution, or organization that is designated by the study sponsor as a vested partner in the study."
      },
      {
        "code": "C215662",
        "term": "Contract Research",
        "synonyms": null,
        "definition": "Research that is conducted by an individual or organization on behalf of another organization through a contracting mechanism."
      },
      {
        "code": "C142489",
        "term": "Data Safety Monitoring Board",
        "synonyms": "Data and Safety Monitoring Board, Data and Safety Monitoring Committee DSMB, Data Monitoring and Oversight Committee, DMC, DMOC, DSMC, IDMC, Independent Data Monitoring Committee",
        "definition": "A group of independent experts who are appointed to monitor the safety and scientific integrity of a research intervention, protect the confidentiality of participant data, and to make recommendations to the sponsor regarding the stopping of the trial for safety, efficacy, or for futility. (After clinicaltrials.gov; Committee for Medicinal Products for Human Use (CHMP), 2005, EMA; FDA Establishment and Operation of Clinical Trial Data Monitoring Committees. March 2006)"
      },
      {
        "code": "C215671",
        "term": "Dose Escalation Committee",
        "synonyms": null,
        "definition": "A committee established to assess whether a dose adjustment is appropriate and to determine whether the maximum-tolerated dose had been attained, based on a review of available safety and efficacy data at specified time points."
      },
      {
        "code": "C142578",
        "term": "Independent Data Monitoring Committee",
        "synonyms": null,
        "definition": "A committee established by the sponsor to assess at intervals the progress of a clinical trial, safety data, and critical efficacy variables and recommend to the sponsor whether to continue, modify, or terminate the trial. [ICH E9] (CDISC Glossary)"
      },
      {
        "code": "C25936",
        "term": "Investigator",
        "synonyms": null,
        "definition": "A person responsible for the conduct of the study, ensuring adherence to the protocol and good clinical practices. (CDISC Glossary)"
      },
      {
        "code": "C37984",
        "term": "Laboratory",
        "synonyms": null,
        "definition": "An organization with the capability and competency to perform scientific research, experiments, and measurements. (BRIDG)"
      },
      {
        "code": "C215670",
        "term": "Local Sponsor",
        "synonyms": null,
        "definition": "The sponsor's legal representative at a geographical region within which the sponsor has no legal presence. (ICH M11)"
      },
      {
        "code": "C25392",
        "term": "Manufacturer",
        "synonyms": "Manufacturer",
        "definition": "The organization defined as being responsible for creating the product as stated on the package in which the product is supplied. (BRIDG)"
      },
      {
        "code": "C51876",
        "term": "Medical Expert",
        "synonyms": null,
        "definition": "A physician or health care provider selected by the sponsor to be readily available to advise clinical trial officials on trial related medical questions or problems."
      },
      {
        "code": "C207599",
        "term": "Outcomes Assessor",
        "synonyms": null,
        "definition": "The individual who evaluates the outcome(s) of interest. (Clinicaltrials.gov)"
      },
      {
        "code": "C215673",
        "term": "Pharmacovigilance",
        "synonyms": null,
        "definition": "A group that is responsible for monitoring the safety of medicines and taking action to reduce their risks and increase their benefits."
      },
      {
        "code": "C19924",
        "term": "Principal investigator",
        "synonyms": null,
        "definition": "The study investigator who has the primary responsibility for the conduct of a study and for the study-related personnel at the participating site(s)."
      },
      {
        "code": "C51851",
        "term": "Project Manager",
        "synonyms": "Project Coordinator",
        "definition": "A staff member who is responsible for the overall integration and interaction of different people and different components of subject matter associated with a specific project."
      },
      {
        "code": "C188863",
        "term": "Regulatory Agency",
        "synonyms": "Regulator, Regulatory Body",
        "definition": "An organization (typically a government agency) that is responsible for implementing and enforcing laws, licensing and regulating products and services, promoting the use of standards, and ensuring safety and consumer protections."
      },
      {
        "code": "C70793",
        "term": "Sponsor",
        "synonyms": "Clinical Study Sponsor, Sponsor, Study Sponsor",
        "definition": "An individual, company, institution, or organization that takes responsibility for the initiation, management, and/or financing of a clinical study. [After ICH E6, WHO, 21 CFR 50.3 (e), and after IDMP]"
      },
      {
        "code": "C51877",
        "term": "Statistician",
        "synonyms": null,
        "definition": "A professional who specializes in applying statistical principles to experimental design and data analysis."
      },
      {
        "code": "C80403",
        "term": "Study Site",
        "synonyms": null,
        "definition": "The location at which a study investigator conducts study activities."
      },
      {
        "code": "C41189",
        "term": "Study Subject",
        "synonyms": null,
        "definition": "An individual who is observed, analyzed, examined, investigated, experimented upon, or/and treated in the course of a particular study."
      }
    ]
  },
  "StudyAmendmentImpact.type": {
    "codelist_code": "C215481",
    "extensible": true,
    "values": [
      {
        "code": "C215667",
        "term": "Study Data Reliability",
        "synonyms": null,
        "definition": "The completeness and accuracy of data as a measure of how well it can be counted on to be consistent and free from errors across time and sources. (IBM)"
      },
      {
        "code": "C215668",
        "term": "Study Data Robustness",
        "synonyms": null,
        "definition": "The data's ability to remain accurate and relevant despite changes or disruptions to the data environment."
      },
      {
        "code": "C215666",
        "term": "Study Subject Rights",
        "synonyms": "Participant Rights",
        "definition": "A study subject's moral, ethical, and legal entitlements before, during, and after the study."
      },
      {
        "code": "C215665",
        "term": "Study Subject Safety",
        "synonyms": "Participant Safety",
        "definition": "The condition in which a study subject is free from harmful effects which may arise as a result of study participation."
      }
    ]
  },
  "MedicalDevice.sourcing": {
    "codelist_code": "C215482",
    "extensible": true,
    "values": [
      {
        "code": "C215659",
        "term": "Centrally Sourced",
        "synonyms": null,
        "definition": "An indication that the entity is obtained from a central source."
      },
      {
        "code": "C215660",
        "term": "Locally Sourced",
        "synonyms": null,
        "definition": "An indication that the entity is obtained from a local source."
      }
    ]
  },
  "AdministrableProduct.sourcing": {
    "codelist_code": "C215483",
    "extensible": true,
    "values": [
      {
        "code": "C215659",
        "term": "Centrally Sourced",
        "synonyms": null,
        "definition": "An indication that the entity is obtained from a central source."
      },
      {
        "code": "C215660",
        "term": "Locally Sourced",
        "synonyms": null,
        "definition": "An indication that the entity is obtained from a local source."
      }
    ]
  },
  "MedicalDeviceIdentifier.type": {
    "codelist_code": "C215484",
    "extensible": true,
    "values": [
      {
        "code": "C104504",
        "term": "Batch Number",
        "synonyms": "Batch Identifier, Batch Number",
        "definition": "A distinctive alpha-numeric identification code assigned by the manufacturer or distributor to a specific quantity of manufactured material or product that is produced in a manner that is expected to render it homogeneous."
      },
      {
        "code": "C112279",
        "term": "FDA Unique Device Identification",
        "synonyms": "FDA Unique Device Identification",
        "definition": "A UDI is a unique numeric or alphanumeric code that includes a device identifier, which is specific to a device model, and a production identifier, which includes the current production information for that specific device, such as the lot or batch number, the serial number and/or expiration date. (FDA)"
      },
      {
        "code": "C70848",
        "term": "Lot Number",
        "synonyms": "Lot Identifier, Lot Number",
        "definition": "A distinctive alpha-numeric identification code assigned by the manufacturer or distributor to a specific quantity of manufactured material or product within a batch."
      },
      {
        "code": "C99285",
        "term": "Model Number",
        "synonyms": "Model Identifier, Model Number",
        "definition": "The identifier assigned to a particular design of a device, usually an alphanumeric text string."
      }
    ]
  },
  "ProductOrganizationRole.code": {
    "codelist_code": "C215485",
    "extensible": true,
    "values": [
      {
        "code": "C25392",
        "term": "Manufacturer",
        "synonyms": "Manufacturer",
        "definition": "The organization defined as being responsible for creating the product as stated on the package in which the product is supplied. (BRIDG)"
      },
      {
        "code": "C43530",
        "term": "Supplier",
        "synonyms": null,
        "definition": "An individual or organization whose business is to supply a particular service or commodity."
      }
    ]
  },
  "ObservationalStudyDesign.subTypes": {
    "codelist_code": "C215486",
    "extensible": true,
    "values": [
      {
        "code": "C215657",
        "term": "Clinical Education",
        "synonyms": null,
        "definition": "A study that assesses the effectiveness of health information on reducing ill health and enhancing good health by influencing beliefs, attitudes, and behavior of individuals and communities."
      },
      {
        "code": "C215654",
        "term": "Disease Determinants",
        "synonyms": null,
        "definition": "A study that assesses the variables that influence the occurrence frequency and/or population distribution of a given disease, condition, or injury"
      },
      {
        "code": "C215658",
        "term": "Disease Etiology",
        "synonyms": null,
        "definition": "A study that assesses the causative factors associated with a disease, condition, or injury."
      },
      {
        "code": "C215653",
        "term": "Disease Incidence",
        "synonyms": null,
        "definition": "A study that assesses the occurrence of new cases of disease, condition, or injury in a defined population over a specified period of time."
      },
      {
        "code": "C215675",
        "term": "Disease Prevalence",
        "synonyms": null,
        "definition": "A study that assesses the proportion of persons in a population who have a particular disease, condition, or injury at a specified point in time or over a specified period of time. (CDC)"
      },
      {
        "code": "C215655",
        "term": "Disease Prognosis",
        "synonyms": null,
        "definition": "A study that assesses the prediction of the probable course and outcome of a disease, condition, or injury."
      },
      {
        "code": "C215656",
        "term": "Drug Utilization",
        "synonyms": null,
        "definition": "A study that assesses drug usage patterns for prophylaxis or treatment of health problems, or promoting maintenance of health and well-being."
      },
      {
        "code": "C49667",
        "term": "Safety",
        "synonyms": null,
        "definition": "A study that assesses the medical risks to a subject. Safety is usually assessed by examining a wide range of clinical parameters, including adverse events, vital signs, physical exam, laboratory tests."
      }
    ]
  },
  "ObservationalStudyDesign.observationalModel": {
    "codelist_code": "C127259",
    "extensible": true,
    "values": [
      {
        "code": "C15197",
        "term": "CASE CONTROL",
        "synonyms": null,
        "definition": "Retrospective study in which individuals with an outcome (cases) are compared to those who do not have the outcome (controls). (CDISC Glossary)"
      },
      {
        "code": "C127779",
        "term": "CASE CROSSOVER",
        "synonyms": null,
        "definition": "A study in which the subject characteristics of the case, immediately prior to disease onset (sometimes called the hazard period), are compared to characteristics of same case at a prior time (i.e., control period). (ClinicalTrials.gov)"
      },
      {
        "code": "C15362",
        "term": "CASE ONLY",
        "synonyms": null,
        "definition": "A study in which the subject with the condition under study (the case) is compared against a theoretical/historical model of distribution that serves as a control."
      },
      {
        "code": "C15208",
        "term": "COHORT",
        "synonyms": null,
        "definition": "Study of a group of individuals, some of whom are exposed to a variable of interest, in which subjects are followed over time. (CDISC Glossary)"
      },
      {
        "code": "C127780",
        "term": "ECOLOGIC OR COMMUNITY",
        "synonyms": null,
        "definition": "A study in which geographically distinct study populations are compared with respect to a particular outcome."
      },
      {
        "code": "C15407",
        "term": "FAMILY BASED",
        "synonyms": null,
        "definition": "A study in which related or non-related family members are compared with respect to a particular outcome."
      }
    ]
  },
  "ObservationalStudyDesign.samplingMethod": {
    "codelist_code": "C127260",
    "extensible": true,
    "values": [
      {
        "code": "C127781",
        "term": "NON-PROBABILITY SAMPLE",
        "synonyms": null,
        "definition": "A non-random process used to select a study population in which the participants have been selected based on convenience or with a particular purpose in mind."
      },
      {
        "code": "C71517",
        "term": "PROBABILITY SAMPLE",
        "synonyms": null,
        "definition": "An exclusively random process to guarantee that each participant or population has specified chance of selection, such as simple random sampling, systematic sampling, stratified random sampling, cluster sampling, and consecutive patient sampling. (clinicaltrials.gov)"
      }
    ]
  },
  "ObservationalStudyDesign.timePerspective": {
    "codelist_code": "C127261",
    "extensible": true,
    "values": [
      {
        "code": "C53310",
        "term": "CROSS SECTIONAL",
        "synonyms": null,
        "definition": "A study that measures the prevalence of health outcomes or determinants of health, or both, in a population at a point in time or over a short period. (CDISC Glossary)"
      },
      {
        "code": "C15273",
        "term": "PROSPECTIVE",
        "synonyms": null,
        "definition": "A prospective observational study designed to monitor health measures of individuals over a defined period of time. (CDISC Glossary)"
      },
      {
        "code": "C53312",
        "term": "RETROSPECTIVE",
        "synonyms": null,
        "definition": "A study with planned observations collected predominantly before study start (i.e., backward-looking). (CDISC Glossary)"
      }
    ]
  },
  "Encounter.environmentalSettings": {
    "codelist_code": "C127262",
    "extensible": true,
    "values": [
      {
        "code": "C127785",
        "term": "CHILD CARE CENTER",
        "synonyms": null,
        "definition": "An establishment that provides care for infants and children."
      },
      {
        "code": "C51282",
        "term": "CLINIC",
        "synonyms": null,
        "definition": "A health care facility where subjects or patients may receive assessments, procedures, or treatments that are provided by physicians and other healthcare providers."
      },
      {
        "code": "C48953",
        "term": "FARM",
        "synonyms": null,
        "definition": "A tract of land cultivated for the purpose of agricultural production or devoted to the raising and breeding of domestic animals."
      },
      {
        "code": "C102650",
        "term": "FIELD",
        "synonyms": null,
        "definition": "A setting outside the clinic or a comparable health care facility, e.g. a doctor's office, the subject's home or workplace, a school, a public park, or a restaurant."
      },
      {
        "code": "C21541",
        "term": "HEALTH FACILITY",
        "synonyms": null,
        "definition": "The buildings and organizations where healthcare services are provided."
      },
      {
        "code": "C18002",
        "term": "HOME",
        "synonyms": null,
        "definition": "A person's place of residence."
      },
      {
        "code": "C16696",
        "term": "HOSPITAL",
        "synonyms": null,
        "definition": "An institution that provides medical, surgical, or psychiatric care and treatment for the sick or the injured."
      },
      {
        "code": "C102647",
        "term": "HOUSEHOLD ENVIRONMENT",
        "synonyms": null,
        "definition": "The area in which an individual lives."
      },
      {
        "code": "C41206",
        "term": "INSTITUTION",
        "synonyms": null,
        "definition": "An established society, corporation, foundation or other organization founded and united for a specific purpose, e.g. for health-related research; also used to refer to a building or buildings occupied or used by such organization."
      },
      {
        "code": "C181529",
        "term": "MOTOR VEHICLE",
        "synonyms": null,
        "definition": "A motorized conveyance for people and goods."
      },
      {
        "code": "C102679",
        "term": "NON-HOUSEHOLD ENVIRONMENT",
        "synonyms": null,
        "definition": "An area outside of that in which an individual lives."
      },
      {
        "code": "C181530",
        "term": "NOT IN CLINIC",
        "synonyms": null,
        "definition": "Any environmental setting outside of a clinic."
      },
      {
        "code": "C16281",
        "term": "OUTPATIENT CLINIC",
        "synonyms": null,
        "definition": "A medical care center that provides healthcare services on an outpatient basis."
      },
      {
        "code": "C85862",
        "term": "PRISON",
        "synonyms": null,
        "definition": "An institution where persons are confined for punishment and to protect the public."
      },
      {
        "code": "C17118",
        "term": "SCHOOL",
        "synonyms": null,
        "definition": "An educational institution."
      },
      {
        "code": "C85863",
        "term": "SHELTER",
        "synonyms": null,
        "definition": "Temporary housing for displaced or at-risk persons."
      },
      {
        "code": "C102712",
        "term": "SOCIAL SETTING",
        "synonyms": null,
        "definition": "The surroundings or environment in which social activities occur."
      },
      {
        "code": "C17556",
        "term": "WORKSITE",
        "synonyms": null,
        "definition": "Place or physical location of work or employment."
      },
      {
        "code": "C211570",
        "term": "CLINIC",
        "synonyms": null,
        "definition": "A health care facility where subjects or patients may receive assessments, procedures, or treatments that are provided by physicians and other healthcare providers."
      }
    ]
  },
  "Administration.route": {
    "codelist_code": "C66729",
    "extensible": true,
    "values": [
      {
        "code": "C38192",
        "term": "AURICULAR (OTIC)",
        "synonyms": null,
        "definition": "Administration to or by way of the ear. (FDA)"
      },
      {
        "code": "C38193",
        "term": "BUCCAL",
        "synonyms": null,
        "definition": "Administration directed toward the cheek, generally from within the mouth. (FDA)"
      },
      {
        "code": "C38194",
        "term": "CONJUNCTIVAL",
        "synonyms": null,
        "definition": "Administration to the conjunctiva, the delicate membrane that lines the eyelids and covers the exposed surface of the eyeball. (FDA)"
      },
      {
        "code": "C38675",
        "term": "CUTANEOUS",
        "synonyms": null,
        "definition": "Administration to the skin. (FDA)"
      },
      {
        "code": "C38197",
        "term": "DENTAL",
        "synonyms": null,
        "definition": "Administration to a tooth or teeth. (FDA)"
      },
      {
        "code": "C78373",
        "term": "DIETARY",
        "synonyms": null,
        "definition": "Administration by way of food or water."
      },
      {
        "code": "C38633",
        "term": "ELECTRO-OSMOSIS",
        "synonyms": null,
        "definition": "Administration of through the diffusion of substance through a membrane in an electric field. (FDA)"
      },
      {
        "code": "C38205",
        "term": "ENDOCERVICAL",
        "synonyms": "Intracervical Route of Administration",
        "definition": "Administration within the canal of the cervix uteri. Synonymous with the term intracervical. (FDA)"
      },
      {
        "code": "C38206",
        "term": "ENDOSINUSIAL",
        "synonyms": null,
        "definition": "Administration within the nasal sinuses of the head. (FDA)"
      },
      {
        "code": "C38208",
        "term": "ENDOTRACHEAL",
        "synonyms": "Intratracheal Route of Administration",
        "definition": "Administration directly into the trachea. Synonymous with the term intratracheal. (FDA)"
      },
      {
        "code": "C38209",
        "term": "ENTERAL",
        "synonyms": null,
        "definition": "Administration directly into the intestines. (FDA)"
      },
      {
        "code": "C38210",
        "term": "EPIDURAL",
        "synonyms": null,
        "definition": "Administration upon or over the dura mater. (FDA)"
      },
      {
        "code": "C38211",
        "term": "EXTRA-AMNIOTIC",
        "synonyms": null,
        "definition": "Administration to the outside of the membrane enveloping the fetus. (FDA)"
      },
      {
        "code": "C38212",
        "term": "EXTRACORPOREAL",
        "synonyms": null,
        "definition": "Administration outside of the body. (FDA)"
      },
      {
        "code": "C202447",
        "term": "GASTROJEJUNAL",
        "synonyms": null,
        "definition": "Administration through the stomach and into the jejunum, usually by a tube passed through the skin, stomach, and into the jejunum."
      },
      {
        "code": "C38200",
        "term": "HEMODIALYSIS",
        "synonyms": null,
        "definition": "Administration through hemodialysate fluid. (FDA)"
      },
      {
        "code": "C85516",
        "term": "IMMERSION",
        "synonyms": "Submersion Route of Administration",
        "definition": "Administration via partial or complete submersion in a specified environment such as liquid or air."
      },
      {
        "code": "C38215",
        "term": "INFILTRATION",
        "synonyms": null,
        "definition": "Administration that results in substances passing into tissue spaces or into cells. (FDA)"
      },
      {
        "code": "C38219",
        "term": "INTERSTITIAL",
        "synonyms": null,
        "definition": "Administration to or in the interstices of a tissue. (FDA)"
      },
      {
        "code": "C38220",
        "term": "INTRA-ABDOMINAL",
        "synonyms": null,
        "definition": "Administration within the abdomen. (FDA)"
      },
      {
        "code": "C38221",
        "term": "INTRA-AMNIOTIC",
        "synonyms": null,
        "definition": "Administration within the amnion. (FDA)"
      },
      {
        "code": "C38222",
        "term": "INTRA-ARTERIAL",
        "synonyms": null,
        "definition": "Administration within an artery or arteries. (FDA)"
      },
      {
        "code": "C38223",
        "term": "INTRA-ARTICULAR",
        "synonyms": null,
        "definition": "Administration within a joint. (FDA)"
      },
      {
        "code": "C38224",
        "term": "INTRABILIARY",
        "synonyms": null,
        "definition": "Administration within the bile, bile ducts or gallbladder. (FDA)"
      },
      {
        "code": "C38225",
        "term": "INTRABRONCHIAL",
        "synonyms": null,
        "definition": "Administration within a bronchus. (FDA)"
      },
      {
        "code": "C38226",
        "term": "INTRABURSAL",
        "synonyms": null,
        "definition": "Administration within a bursa. (FDA)"
      },
      {
        "code": "C64984",
        "term": "INTRACAMERAL",
        "synonyms": null,
        "definition": "Administration by injection directly into the anterior chamber of the eye."
      },
      {
        "code": "C38227",
        "term": "INTRACARDIAC",
        "synonyms": null,
        "definition": "Administration within the heart. (FDA)"
      },
      {
        "code": "C38228",
        "term": "INTRACARTILAGINOUS",
        "synonyms": null,
        "definition": "Administration within a cartilage; endochondral. (FDA)"
      },
      {
        "code": "C38229",
        "term": "INTRACAUDAL",
        "synonyms": null,
        "definition": "Administration within the cauda equina. (FDA)"
      },
      {
        "code": "C38230",
        "term": "INTRACAVERNOUS",
        "synonyms": null,
        "definition": "Administration within a pathologic cavity, such as occurs in the lung in tuberculosis. (FDA)"
      },
      {
        "code": "C38231",
        "term": "INTRACAVITARY",
        "synonyms": null,
        "definition": "Administration within a non-pathologic cavity, such as that of the cervix, uterus, or penis, or such as that is formed as the result of a wound. (FDA)"
      },
      {
        "code": "C38232",
        "term": "INTRACEREBRAL",
        "synonyms": null,
        "definition": "Administration within the cerebrum. (FDA)"
      },
      {
        "code": "C38233",
        "term": "INTRACISTERNAL",
        "synonyms": null,
        "definition": "Administration within the cisterna magna cerebellomedularis. (FDA)"
      },
      {
        "code": "C184707",
        "term": "INTRACOCHLEAR",
        "synonyms": null,
        "definition": "Administration within the cochlea."
      },
      {
        "code": "C38234",
        "term": "INTRACORNEAL",
        "synonyms": null,
        "definition": "Administration within the cornea (the transparent structure forming the anterior part of the fibrous tunic of the eye). (FDA)"
      },
      {
        "code": "C38217",
        "term": "INTRACORONAL, DENTAL",
        "synonyms": null,
        "definition": "Administration of a drug within a portion of a tooth which is covered by enamel and which is separated from the roots by a slightly constricted region known as the neck. (FDA)"
      },
      {
        "code": "C38218",
        "term": "INTRACORONARY",
        "synonyms": null,
        "definition": "Administration within the coronary arteries. (FDA)"
      },
      {
        "code": "C38235",
        "term": "INTRACORPORUS CAVERNOSUM",
        "synonyms": null,
        "definition": "Administration within the dilatable spaces of the corporus cavernosa of the penis. (FDA)"
      },
      {
        "code": "C38238",
        "term": "INTRADERMAL",
        "synonyms": null,
        "definition": "Administration within the dermis. (FDA)"
      },
      {
        "code": "C38239",
        "term": "INTRADISCAL",
        "synonyms": null,
        "definition": "Administration within a disc. (FDA)"
      },
      {
        "code": "C38240",
        "term": "INTRADUCTAL",
        "synonyms": null,
        "definition": "Administration within the duct of a gland. (FDA)"
      },
      {
        "code": "C38241",
        "term": "INTRADUODENAL",
        "synonyms": null,
        "definition": "Administration within the duodenum. (FDA)"
      },
      {
        "code": "C38242",
        "term": "INTRADURAL",
        "synonyms": null,
        "definition": "Administration within or beneath the dura. (FDA)"
      },
      {
        "code": "C38243",
        "term": "INTRAEPIDERMAL",
        "synonyms": null,
        "definition": "Administration within the epidermis. (FDA)"
      },
      {
        "code": "C38245",
        "term": "INTRAESOPHAGEAL",
        "synonyms": null,
        "definition": "Administration within the esophagus. (FDA)"
      },
      {
        "code": "C38246",
        "term": "INTRAGASTRIC",
        "synonyms": null,
        "definition": "Administration within the stomach. (FDA)"
      },
      {
        "code": "C38247",
        "term": "INTRAGINGIVAL",
        "synonyms": null,
        "definition": "Administration within the gingivae. (FDA)"
      },
      {
        "code": "C38248",
        "term": "INTRAHEPATIC",
        "synonyms": null,
        "definition": "Administration into the liver."
      },
      {
        "code": "C38249",
        "term": "INTRAILEAL",
        "synonyms": null,
        "definition": "Administration within the distal portion of the small intestine, from the jejunum to the cecum. (FDA)"
      },
      {
        "code": "C102399",
        "term": "INTRAJEJUNAL",
        "synonyms": null,
        "definition": "Administration into the jejunum."
      },
      {
        "code": "C38250",
        "term": "INTRALESIONAL",
        "synonyms": null,
        "definition": "Administration within or introduced directly into a localized lesion. (FDA)"
      },
      {
        "code": "C38251",
        "term": "INTRALUMINAL",
        "synonyms": null,
        "definition": "Administration within the lumen of a tube. (FDA)"
      },
      {
        "code": "C38252",
        "term": "INTRALYMPHATIC",
        "synonyms": null,
        "definition": "Administration within the lymph. (FDA)"
      },
      {
        "code": "C79137",
        "term": "INTRAMAMMARY",
        "synonyms": null,
        "definition": "Administration of a drug into mammary tissue."
      },
      {
        "code": "C156590",
        "term": "INTRAMANDIBULAR",
        "synonyms": null,
        "definition": "Administration within the mandible."
      },
      {
        "code": "C38253",
        "term": "INTRAMEDULLARY",
        "synonyms": null,
        "definition": "Administration within the marrow cavity of a bone. (FDA)"
      },
      {
        "code": "C38254",
        "term": "INTRAMENINGEAL",
        "synonyms": null,
        "definition": "Administration within the meninges (the three membranes that envelope the brain and spinal cord). (FDA)"
      },
      {
        "code": "C28161",
        "term": "INTRAMUSCULAR",
        "synonyms": null,
        "definition": "Administration within a muscle. (FDA)"
      },
      {
        "code": "C79141",
        "term": "INTRANODAL",
        "synonyms": null,
        "definition": "Administration within a lymph node."
      },
      {
        "code": "C38255",
        "term": "INTRAOCULAR",
        "synonyms": null,
        "definition": "Administration within the eye. (FDA)"
      },
      {
        "code": "C64987",
        "term": "INTRAOSSEOUS",
        "synonyms": null,
        "definition": "Administration within the marrow of the bone."
      },
      {
        "code": "C38256",
        "term": "INTRAOVARIAN",
        "synonyms": null,
        "definition": "Administration within the ovary. (FDA)"
      },
      {
        "code": "C102400",
        "term": "INTRAPALATAL",
        "synonyms": null,
        "definition": "Administration into the palate."
      },
      {
        "code": "C119548",
        "term": "INTRAPARENCHYMAL",
        "synonyms": null,
        "definition": "Administration within or into the parenchyma of a targeted organ."
      },
      {
        "code": "C38257",
        "term": "INTRAPERICARDIAL",
        "synonyms": null,
        "definition": "Administration within the pericardium. (FDA)"
      },
      {
        "code": "C38258",
        "term": "INTRAPERITONEAL",
        "synonyms": null,
        "definition": "Administration within the peritoneal cavity. (FDA)"
      },
      {
        "code": "C38259",
        "term": "INTRAPLEURAL",
        "synonyms": null,
        "definition": "Administration within the pleura. (FDA)"
      },
      {
        "code": "C38260",
        "term": "INTRAPROSTATIC",
        "synonyms": null,
        "definition": "Administration within the prostate gland. (FDA)"
      },
      {
        "code": "C38261",
        "term": "INTRAPULMONARY",
        "synonyms": null,
        "definition": "Administration within the lungs or its bronchi. (FDA)"
      },
      {
        "code": "C79139",
        "term": "INTRARUMINAL",
        "synonyms": null,
        "definition": "Administration of a drug into the rumen of an animal."
      },
      {
        "code": "C38262",
        "term": "INTRASINAL",
        "synonyms": null,
        "definition": "Administration within the nasal or periorbital sinuses. (FDA)"
      },
      {
        "code": "C38263",
        "term": "INTRASPINAL",
        "synonyms": null,
        "definition": "Administration within the vertebral column. (FDA)"
      },
      {
        "code": "C65138",
        "term": "INTRASTOMAL",
        "synonyms": null,
        "definition": "Administration into a stoma."
      },
      {
        "code": "C142365",
        "term": "INTRASURGICAL SITE",
        "synonyms": null,
        "definition": "Administration within the site of surgery."
      },
      {
        "code": "C38264",
        "term": "INTRASYNOVIAL",
        "synonyms": null,
        "definition": "Administration within the synovial cavity of a joint. (FDA)"
      },
      {
        "code": "C38265",
        "term": "INTRATENDINOUS",
        "synonyms": null,
        "definition": "Administration within a tendon. (FDA)"
      },
      {
        "code": "C38266",
        "term": "INTRATESTICULAR",
        "synonyms": null,
        "definition": "Administration within the testicle. (FDA)"
      },
      {
        "code": "C128995",
        "term": "INTRATHALAMIC",
        "synonyms": null,
        "definition": "Administration within the thalamus."
      },
      {
        "code": "C38267",
        "term": "INTRATHECAL",
        "synonyms": null,
        "definition": "Administration within the cerebrospinal fluid at any level of the cerebrospinal axis, including injection into the cerebral ventricles. (FDA)"
      },
      {
        "code": "C38207",
        "term": "INTRATHORACIC",
        "synonyms": null,
        "definition": "Administration within the thorax (internal to the ribs); synonymous with the term endothoracic. (FDA)"
      },
      {
        "code": "C38268",
        "term": "INTRATUBULAR",
        "synonyms": null,
        "definition": "Administration within the tubules of an organ. (FDA)"
      },
      {
        "code": "C38269",
        "term": "INTRATUMOR",
        "synonyms": "Intratumor Route of Administration",
        "definition": "Administration within a tumor. (FDA)"
      },
      {
        "code": "C38270",
        "term": "INTRATYMPANIC",
        "synonyms": null,
        "definition": "Administration within the auris media. (FDA)"
      },
      {
        "code": "C38272",
        "term": "INTRAUTERINE",
        "synonyms": null,
        "definition": "Administration within the uterus. (FDA)"
      },
      {
        "code": "C128996",
        "term": "INTRAVAGINAL",
        "synonyms": null,
        "definition": "Administration within the vagina."
      },
      {
        "code": "C38273",
        "term": "INTRAVASCULAR",
        "synonyms": null,
        "definition": "Administration within a vessel or vessels. (FDA)"
      },
      {
        "code": "C38274",
        "term": "INTRAVENOUS BOLUS",
        "synonyms": null,
        "definition": "Administration within or into a vein or veins all at once. (FDA)"
      },
      {
        "code": "C38279",
        "term": "INTRAVENOUS DRIP",
        "synonyms": null,
        "definition": "Administration within or into a vein or veins over a sustained period of time. (FDA)"
      },
      {
        "code": "C38276",
        "term": "INTRAVENOUS",
        "synonyms": null,
        "definition": "Administration within or into a vein or veins. (FDA)"
      },
      {
        "code": "C38277",
        "term": "INTRAVENTRICULAR",
        "synonyms": null,
        "definition": "Administration within a ventricle. (FDA)"
      },
      {
        "code": "C38278",
        "term": "INTRAVESICAL",
        "synonyms": null,
        "definition": "Administration within the bladder. (FDA)"
      },
      {
        "code": "C38280",
        "term": "INTRAVITREAL",
        "synonyms": null,
        "definition": "Administration within the vitreous body of the eye. (FDA)"
      },
      {
        "code": "C38203",
        "term": "IONTOPHORESIS",
        "synonyms": null,
        "definition": "Administration by means of an electric current where ions of soluble salts migrate into the tissues of the body. (FDA)"
      },
      {
        "code": "C38281",
        "term": "IRRIGATION",
        "synonyms": null,
        "definition": "Administration to bathe or flush open wounds or body cavities. (FDA)"
      },
      {
        "code": "C38282",
        "term": "LARYNGEAL",
        "synonyms": null,
        "definition": "Administration directly upon the larynx. (FDA)"
      },
      {
        "code": "C150889",
        "term": "MICRODIALYSIS",
        "synonyms": null,
        "definition": "Administration through microdialysate fluid."
      },
      {
        "code": "C38284",
        "term": "NASAL",
        "synonyms": "Intranasal Route of Administration",
        "definition": "Administration to the nose; administered by way of the nose. (FDA)"
      },
      {
        "code": "C188189",
        "term": "NASODUODENAL",
        "synonyms": null,
        "definition": "Administration through the nose and into the duodenum, usually by means of a tube."
      },
      {
        "code": "C38285",
        "term": "NASOGASTRIC",
        "synonyms": null,
        "definition": "Administration through the nose and into the stomach, usually by means of a tube. (FDA)"
      },
      {
        "code": "C191350",
        "term": "NASOJEJUNAL",
        "synonyms": null,
        "definition": "Administration through the nose and into the jejunum, usually by means of a tube."
      },
      {
        "code": "C48623",
        "term": "NOT APPLICABLE",
        "synonyms": null,
        "definition": "Routes of administration are not applicable. (FDA)"
      },
      {
        "code": "C38286",
        "term": "OCCLUSIVE DRESSING TECHNIQUE",
        "synonyms": null,
        "definition": "Administration by the topical route which is then covered by a dressing which occludes the area. (FDA)"
      },
      {
        "code": "C38287",
        "term": "OPHTHALMIC",
        "synonyms": null,
        "definition": "Administration to the external eye. (FDA)"
      },
      {
        "code": "C78374",
        "term": "ORAL GAVAGE",
        "synonyms": null,
        "definition": "Administration through the mouth and into the stomach, usually by means of a tube. (NCI)"
      },
      {
        "code": "C38288",
        "term": "ORAL",
        "synonyms": "Intraoral Route of Administration, PO",
        "definition": "Administration to or by way of the mouth. (FDA)"
      },
      {
        "code": "C188195",
        "term": "OROGASTRIC",
        "synonyms": null,
        "definition": "Administration through the mouth and into the stomach, usually by means of a tube."
      },
      {
        "code": "C64906",
        "term": "OROMUCOSAL",
        "synonyms": null,
        "definition": "Administration across the mucosa of the oral cavity."
      },
      {
        "code": "C38289",
        "term": "OROPHARYNGEAL",
        "synonyms": null,
        "definition": "Administration directly to the mouth and pharynx. (FDA)"
      },
      {
        "code": "C38291",
        "term": "PARENTERAL",
        "synonyms": null,
        "definition": "Administration by injection, infusion, or implantation. (FDA)"
      },
      {
        "code": "C38676",
        "term": "PERCUTANEOUS",
        "synonyms": null,
        "definition": "Administration through the skin. (FDA)"
      },
      {
        "code": "C38292",
        "term": "PERIARTICULAR",
        "synonyms": null,
        "definition": "Administration around a joint. (FDA)"
      },
      {
        "code": "C38677",
        "term": "PERIDURAL",
        "synonyms": null,
        "definition": "Administration to the outside of the dura mater of the spinal cord. (FDA)"
      },
      {
        "code": "C38293",
        "term": "PERINEURAL",
        "synonyms": null,
        "definition": "Administration surrounding a nerve or nerves. (FDA)"
      },
      {
        "code": "C38294",
        "term": "PERIODONTAL",
        "synonyms": null,
        "definition": "Administration around a tooth. (FDA)"
      },
      {
        "code": "C112396",
        "term": "PERIVENOUS",
        "synonyms": null,
        "definition": "Administration into the area surrounding a vein. (NCI)"
      },
      {
        "code": "C172600",
        "term": "PHARYNGEAL",
        "synonyms": null,
        "definition": "Administration directly upon the pharynx."
      },
      {
        "code": "C38295",
        "term": "RECTAL",
        "synonyms": null,
        "definition": "Administration to the rectum. (FDA)"
      },
      {
        "code": "C38216",
        "term": "RESPIRATORY (INHALATION)",
        "synonyms": null,
        "definition": "Administration within the respiratory tract by inhaling orally or nasally for local or systemic effect. (FDA)"
      },
      {
        "code": "C38296",
        "term": "RETROBULBAR",
        "synonyms": null,
        "definition": "Administration behind the pons or behind the eyeball. (FDA)"
      },
      {
        "code": "C38198",
        "term": "SOFT TISSUE",
        "synonyms": null,
        "definition": "Administration into any soft tissue. (FDA)"
      },
      {
        "code": "C38297",
        "term": "SUBARACHNOID",
        "synonyms": null,
        "definition": "Administration beneath the arachnoid. (FDA)"
      },
      {
        "code": "C38298",
        "term": "SUBCONJUNCTIVAL",
        "synonyms": null,
        "definition": "Administration beneath the conjunctiva. (FDA)"
      },
      {
        "code": "C38299",
        "term": "SUBCUTANEOUS",
        "synonyms": "SC, Subdermal Route of Administration",
        "definition": "Administration beneath the skin; hypodermic. Synonymous with the term SUBDERMAL. (FDA)"
      },
      {
        "code": "C181523",
        "term": "SUBDURAL",
        "synonyms": null,
        "definition": "Administration between the dura mater and the arachnoid mater."
      },
      {
        "code": "C38300",
        "term": "SUBLINGUAL",
        "synonyms": null,
        "definition": "Administration beneath the tongue. (FDA)"
      },
      {
        "code": "C38301",
        "term": "SUBMUCOSAL",
        "synonyms": null,
        "definition": "Administration beneath the mucous membrane. (FDA)"
      },
      {
        "code": "C79143",
        "term": "SUBRETINAL",
        "synonyms": null,
        "definition": "Administration beneath the retina."
      },
      {
        "code": "C94636",
        "term": "SUBTENON",
        "synonyms": null,
        "definition": "Administration by injection through the membrane covering the muscles and nerves at the back of the eyeball."
      },
      {
        "code": "C128997",
        "term": "SUPRACHOROIDAL",
        "synonyms": null,
        "definition": "Administration above the choroid."
      },
      {
        "code": "C38304",
        "term": "TOPICAL",
        "synonyms": "TOP",
        "definition": "Administration to a particular spot on the outer surface of the body. The E2B term TRANSMAMMARY is a subset of the term TOPICAL. (FDA)"
      },
      {
        "code": "C38305",
        "term": "TRANSDERMAL",
        "synonyms": null,
        "definition": "Administration through the dermal layer of the skin to the systemic circulation by diffusion. (FDA)"
      },
      {
        "code": "C111326",
        "term": "TRANSMAMMARY",
        "synonyms": null,
        "definition": "Administration by ingestion of colostrum or breast milk."
      },
      {
        "code": "C38283",
        "term": "TRANSMUCOSAL",
        "synonyms": null,
        "definition": "Administration across the mucosa. (FDA)"
      },
      {
        "code": "C38307",
        "term": "TRANSPLACENTAL",
        "synonyms": null,
        "definition": "Administration through or across the placenta. (FDA)"
      },
      {
        "code": "C38308",
        "term": "TRANSTRACHEAL",
        "synonyms": null,
        "definition": "Administration through the wall of the trachea. (FDA)"
      },
      {
        "code": "C38309",
        "term": "TRANSTYMPANIC",
        "synonyms": null,
        "definition": "Administration across or through the tympanic cavity. (FDA)"
      },
      {
        "code": "C38310",
        "term": "UNASSIGNED",
        "synonyms": null,
        "definition": "Route of administration has not yet been assigned. (FDA)"
      },
      {
        "code": "C38311",
        "term": "UNKNOWN",
        "synonyms": null,
        "definition": "Route of administration is unknown. (FDA)"
      },
      {
        "code": "C38312",
        "term": "URETERAL",
        "synonyms": null,
        "definition": "Administration into the ureter. (FDA)"
      },
      {
        "code": "C38271",
        "term": "URETHRAL",
        "synonyms": null,
        "definition": "Administration into the urethra. (FDA)"
      },
      {
        "code": "C38313",
        "term": "VAGINAL",
        "synonyms": null,
        "definition": "Administration into the vagina. (FDA)"
      },
      {
        "code": "C221683",
        "term": "TRANSFORAMINAL",
        "synonyms": null,
        "definition": "Administration through the vertebral foramen into the epidural space."
      }
    ]
  },
  "StudyDesign.plannedSex": {
    "codelist_code": "C66732",
    "extensible": false,
    "values": [
      {
        "code": "C49636",
        "term": "BOTH",
        "synonyms": null,
        "definition": "One and the other; relating to or being two in conjunction. (NCI)"
      },
      {
        "code": "C16576",
        "term": "F",
        "synonyms": "Female",
        "definition": "A person who belongs to the sex that normally produces ova. The term is used to indicate biological sex distinctions, or cultural gender role distinctions, or both. (NCI)"
      },
      {
        "code": "C20197",
        "term": "M",
        "synonyms": "Male",
        "definition": "A person who belongs to the sex that normally produces sperm. The term is used to indicate biological sex distinctions, cultural gender role distinctions, or both. (NCI)"
      }
    ]
  },
  "StudyDesignPopulation.plannedSex": {
    "codelist_code": "C66732",
    "extensible": false,
    "values": [
      {
        "code": "C49636",
        "term": "BOTH",
        "synonyms": null,
        "definition": "One and the other; relating to or being two in conjunction. (NCI)"
      },
      {
        "code": "C16576",
        "term": "F",
        "synonyms": "Female",
        "definition": "A person who belongs to the sex that normally produces ova. The term is used to indicate biological sex distinctions, or cultural gender role distinctions, or both. (NCI)"
      },
      {
        "code": "C20197",
        "term": "M",
        "synonyms": "Male",
        "definition": "A person who belongs to the sex that normally produces sperm. The term is used to indicate biological sex distinctions, cultural gender role distinctions, or both. (NCI)"
      }
    ]
  },
  "StudyDesign.blindingSchema": {
    "codelist_code": "C66735",
    "extensible": true,
    "values": [
      {
        "code": "C15228",
        "term": "DOUBLE BLIND",
        "synonyms": "Double Masked, Double-Masked",
        "definition": "A study in which neither the subject nor the study personnel interacting with the subject or data during the study knows what intervention a subject is receiving."
      },
      {
        "code": "C187674",
        "term": "OBSERVER BLIND",
        "synonyms": null,
        "definition": "A study in which the study personnel who measure, record, or assess the subject do not know which intervention the subject is receiving or, in the context of observational studies, do not know the external factors to which a subject has been exposed."
      },
      {
        "code": "C156592",
        "term": "OPEN LABEL TO TREATMENT AND DOUBLE BLIND TO IMP DOSE",
        "synonyms": null,
        "definition": "A study in which the therapeutic treatment is open label but the dosing information of the investigational medicinal product (IMP) is double-blinded."
      },
      {
        "code": "C49659",
        "term": "OPEN LABEL",
        "synonyms": null,
        "definition": "A study in which subjects and study personnel know which intervention each subject is receiving."
      },
      {
        "code": "C28233",
        "term": "SINGLE BLIND",
        "synonyms": "Single Masked, Single-Masked",
        "definition": "A study in which one party, either the subject or study personnel, does not know which intervention is administered to the subject."
      }
    ]
  },
  "InterventionalStudyDesign.intentTypes": {
    "codelist_code": "C66736",
    "extensible": true,
    "values": [
      {
        "code": "C15714",
        "term": "BASIC SCIENCE",
        "synonyms": "Basic Research",
        "definition": "A type of study designed to examine the basic mechanism of action (e.g., physiology, biomechanics) of an intervention. (ClinicalTrials.gov)"
      },
      {
        "code": "C49654",
        "term": "CURE",
        "synonyms": null,
        "definition": "A type of study designed to evaluate intervention(s) aimed to cure a disease or condition."
      },
      {
        "code": "C139174",
        "term": "DEVICE FEASIBILITY",
        "synonyms": null,
        "definition": "An intervention of a device product is being evaluated to determine the feasibility of the product or to test a prototype device and not health outcomes. Such studies are conducted to confirm the design and operating specifications of a device before beginning a full clinical trial. (ClinicalTrials.gov)"
      },
      {
        "code": "C49653",
        "term": "DIAGNOSIS",
        "synonyms": null,
        "definition": "A type of study designed to evaluate intervention(s) aimed at identifying a disease or condition."
      },
      {
        "code": "C170629",
        "term": "DISEASE MODIFYING",
        "synonyms": null,
        "definition": "A type of study designed to evaluate the effects of treatment(s) intended to cause a change in disease, syndrome, or condition beyond the point of treatment administration."
      },
      {
        "code": "C15245",
        "term": "HEALTH SERVICES RESEARCH",
        "synonyms": null,
        "definition": "A type of study designed to evaluate the delivery, processes, management, organization or financing of health care. (ClinicalTrials.gov)"
      },
      {
        "code": "C49655",
        "term": "MITIGATION",
        "synonyms": null,
        "definition": "A type of study designed to identify actions necessary to eliminate or reduce the risk to human life or well-being as a result of a particular medication or treatment regimen. (NCI)"
      },
      {
        "code": "C49657",
        "term": "PREVENTION",
        "synonyms": "Prophylaxis Study",
        "definition": "A type of study designed to identify actions necessary to permanently eliminate or reduce the long-term risk to human life as a result of a particular medication or treatment regimen."
      },
      {
        "code": "C71485",
        "term": "SCREENING",
        "synonyms": null,
        "definition": "A type of study designed to assess or examine methods of identifying a condition (or risk factors for a condition) in people who are not yet known to have the condition (or risk factor). (Clinicaltrials.gov)"
      },
      {
        "code": "C71486",
        "term": "SUPPORTIVE CARE",
        "synonyms": null,
        "definition": "A type of study designed to evaluate one or more interventions where the primary intent is to maximize comfort, minimize side effects or mitigate against a decline in the subject's health or function. In general, supportive care interventions are not intended to cure a disease. (ClinicalTrials.gov)"
      },
      {
        "code": "C49656",
        "term": "TREATMENT",
        "synonyms": "Therapy Trial",
        "definition": "A type of study designed to evaluate intervention(s) for treatment of disease, syndrome or condition."
      }
    ]
  },
  "StudyDesign.trialPhase": {
    "codelist_code": "C66737",
    "extensible": true,
    "values": [
      {
        "code": "C54721",
        "term": "EARLY PHASE I",
        "synonyms": "0, Phase 0 Trial, Pre-clinical Trial, Trial Phase 0",
        "definition": "First-in-human trials, in a small number of subjects, that are conducted before Phase 1 trials and are intended to assess new candidate therapeutic and imaging agents. The study agent is administered at a low dose for a limited time, and there is no therapeutic or diagnostic intent. NOTE: FDA Guidance for Industry, Investigators, and Reviewers: Exploratory IND Studies, January 2006 classifies such studies as Phase 1. NOTE: A Phase 0 study might not include any drug delivery but may be an exploration of human material from a study (e.g., tissue samples or biomarker determinations). [Improving the Quality of Cancer Clinical Trials: Workshop summary-Proceedings of the National Cancer Policy Forum Workshop, improving the Quality of Cancer Clinical Trials (Washington, DC, Oct 2007)] (CDISC glossary)"
      },
      {
        "code": "C48660",
        "term": "NOT APPLICABLE",
        "synonyms": "NA, Not Applicable",
        "definition": "Determination of a value is not relevant in the current context. (NCI)"
      },
      {
        "code": "C15600",
        "term": "PHASE I TRIAL",
        "synonyms": "1, Trial Phase 1",
        "definition": "The initial introduction of an investigational new drug into humans. Phase 1 studies are typically closely monitored and may be conducted in patients or normal volunteer subjects. NOTE: These studies are designed to determine the metabolism and pharmacologic actions of the drug in humans, the side effects associated with increasing doses, and, if possible, to gain early evidence on effectiveness. During Phase 1, sufficient information about the drug's pharmacokinetics and pharmacological effects should be obtained to permit the design of well-controlled, scientifically valid, Phase 2 studies. The total number of subjects and patients included in Phase I studies varies with the drug, but is generally in the range of 20 to 80. Phase 1 studies also include studies of drug metabolism, structure-activity relationships, and mechanism of action in humans, as well as studies in which investigational drugs are used as research tools to explore biological phenomena or disease processes. [After FDA CDER Handbook, ICH E8] (CDISC glossary)"
      },
      {
        "code": "C15693",
        "term": "PHASE I/II TRIAL",
        "synonyms": "1-2, Trial Phase 1-2",
        "definition": "A class of clinical study that combines elements characteristic of traditional Phase I and Phase II trials. See also Phase I, Phase II."
      },
      {
        "code": "C198366",
        "term": "PHASE I/II/III TRIAL",
        "synonyms": "1/2/3, Trial Phase 1/2/3",
        "definition": "A study that begins as a Phase I study and transitions into Phases II and III based upon successful completion of each previous portion."
      },
      {
        "code": "C198367",
        "term": "PHASE I/III TRIAL",
        "synonyms": "1/3, Trial Phase 1/3",
        "definition": "A study that begins as a Phase I study and transitions into a Phase III study upon successful completion of the Phase I portion."
      },
      {
        "code": "C199990",
        "term": "PHASE IA TRIAL",
        "synonyms": "1A, Trial Phase 1A",
        "definition": "A type of phase 1 trial with a single ascending dose (dose escalation) in a smaller group of patients (in comparison to a Phase 1B)."
      },
      {
        "code": "C199989",
        "term": "PHASE IB TRIAL",
        "synonyms": "1B, Trial Phase 1B",
        "definition": "A type of phase 1 trial with multiple ascending doses (dose expansion) in a larger group of patients (in comparison to a Phase 1A)."
      },
      {
        "code": "C15601",
        "term": "PHASE II TRIAL",
        "synonyms": "2, Trial Phase 2",
        "definition": "Phase that includes the controlled clinical trials conducted to evaluate the safety and efficacy of the drug in a limited number of patients with the disease or condition under study. Objectives can be dose-ranging (dose-response, frequency of dosing), type of patients, or numerous other characteristics of safety and efficacy. [After 21 CRF Part 312.21 Phases of an investigation] See also phase, phase 2a, phase 2b. (CDISC Glossary)"
      },
      {
        "code": "C15694",
        "term": "PHASE II/III TRIAL",
        "synonyms": "2-3, Trial Phase 2-3",
        "definition": "A class of clinical study that combines elements characteristic of traditional Phase II and Phase III trials."
      },
      {
        "code": "C49686",
        "term": "PHASE IIA TRIAL",
        "synonyms": "2A, Trial Phase 2A",
        "definition": "Early Phase 2 trials that focus on a proof-of-concept assessment of efficacy and safety in a small number of patients. [After FDA Guidance for industry end of Phase 2a meetings, September 2009] (CDISC Glossary)"
      },
      {
        "code": "C49688",
        "term": "PHASE IIB TRIAL",
        "synonyms": "2B, Trial Phase 2B",
        "definition": "Later Phase 2 trials, in transition to Phase 3, where the study populations more closely reflect the population, dosage, and condition for intended use. [Clarification of FDA Guidance for industry end of Phase 2a meetings, September 2009; Discussion in Peter B. Gilbert. SOME DESIGN ISSUES IN PHASE 2B VERSUS PHASE 3 PREVENTION TRIALS FOR TESTING EFFICACY OF PRODUCTS OR CONCEPTS. Stat Med. 2010 May 10; 29(10): 1061-1071.]"
      },
      {
        "code": "C15602",
        "term": "PHASE III TRIAL",
        "synonyms": "3, Trial Phase 3",
        "definition": "Phase that includes the controlled clinical trials intended to confirm safety and effectiveness, evaluate the overall benefit-risk relationship, and to provide substantial evidence for regulatory approval and labeling. NOTE: Phase 3 studies usually include from several hundred to several thousand subjects. [After ICH E8; Demonstrating Substantial Evidence of Effectiveness for Human Drug and Biological Products Draft Guidance for Industry. December 2019] See also phase, phase 3b. (CDISC Glossary)"
      },
      {
        "code": "C49687",
        "term": "PHASE IIIA TRIAL",
        "synonyms": "3A, Trial Phase 3A",
        "definition": "A classification typically assigned retrospectively to a Phase III trial upon determination by regulatory authorities of a need for a Phase III B trial. (NCI)"
      },
      {
        "code": "C49689",
        "term": "PHASE IIIB TRIAL",
        "synonyms": "3B, Trial Phase 3B",
        "definition": "Later Phase 3 trial done near the time of approval to elicit additional findings. NOTE: Dossier review may continue while associated Phase 3b trials are conducted. These trials may be required as a condition of regulatory authority approval. Phase 3a is in common usage but not reflected in regulatory guidance. (CDISC Glossary)"
      },
      {
        "code": "C15603",
        "term": "PHASE IV TRIAL",
        "synonyms": "4, Trial Phase 4",
        "definition": "Post-approval studies to delineate additional information about the drug's risks, benefits, and optimal use that may be requested by regulatory authorities in conjunction with marketing approval. NOTE: Phase 4 studies could include, but would not be limited to, studying different doses or schedules of administration than were used in Phase 2 studies, use of the drug in other patient populations or other stages of the disease, or use of the drug over a longer period of time. [after FDA CDER handbook, ICH E8] See also phase. (CDISC Glossary)"
      },
      {
        "code": "C47865",
        "term": "PHASE V TRIAL",
        "synonyms": "5, Trial Phase 5",
        "definition": "Postmarketing surveillance is sometimes referred to as Phase V."
      }
    ]
  },
  "InterventionalStudyDesign.subTypes": {
    "codelist_code": "C66739",
    "extensible": true,
    "values": [
      {
        "code": "C158283",
        "term": "ADHESION PERFORMANCE",
        "synonyms": null,
        "definition": "A type of study designed to evaluate the strength of the bond between an adhesive and the application surface."
      },
      {
        "code": "C158284",
        "term": "ALCOHOL EFFECT",
        "synonyms": null,
        "definition": "A type of study designed to evaluate the effects of alcohol on investigational product safety and/or efficacy."
      },
      {
        "code": "C49664",
        "term": "BIO-AVAILABILITY",
        "synonyms": null,
        "definition": "A study of the degree to which or rate at which a drug or other substance is absorbed or becomes available at the site of physiological activity after administration. (NCI)"
      },
      {
        "code": "C49665",
        "term": "BIO-EQUIVALENCE",
        "synonyms": null,
        "definition": "A study most often used to compare the efficacy of different formulations to treat a given disease. It is the testing of an old versus a new formulation in healthy volunteers or subjects with the disease under study and usually in one dose. (NCI)"
      },
      {
        "code": "C158288",
        "term": "BIOSIMILARITY",
        "synonyms": null,
        "definition": "A type of study designed to evaluate whether a biologic test article is highly similar in function and effect to an existing biologic that has already been clinically tested and approved for use."
      },
      {
        "code": "C158285",
        "term": "DEVICE-DRUG INTERACTION",
        "synonyms": null,
        "definition": "A type of study designed to evaluate the interaction between a device and a drug, where the use of one may affect the disposition, function, efficacy, or safety of the other."
      },
      {
        "code": "C49653",
        "term": "DIAGNOSIS",
        "synonyms": null,
        "definition": "A type of study designed to evaluate intervention(s) aimed at identifying a disease or condition."
      },
      {
        "code": "C158289",
        "term": "DOSE FINDING",
        "synonyms": null,
        "definition": "An early phase clinical study with the objective of determining the optimal dose of an investigational product."
      },
      {
        "code": "C158290",
        "term": "DOSE PROPORTIONALITY",
        "synonyms": null,
        "definition": "A type of study designed to evaluate the relationship between dose and resulting exposure."
      },
      {
        "code": "C127803",
        "term": "DOSE RESPONSE",
        "synonyms": null,
        "definition": "A study of the effect of dose changes on the efficacy of a drug in order to determine the dose-response relationship and optimal dose of a therapy."
      },
      {
        "code": "C158286",
        "term": "DRUG-DRUG INTERACTION",
        "synonyms": null,
        "definition": "A type of study designed to evaluate the interaction between drugs, where the use of one may affect the disposition, efficacy, or safety of the other."
      },
      {
        "code": "C178057",
        "term": "ECG",
        "synonyms": "Electrocardiographic Study",
        "definition": "A study that evaluates the effect of a treatment on cardiac electrical activity, as assessed by electrocardiography."
      },
      {
        "code": "C49666",
        "term": "EFFICACY",
        "synonyms": null,
        "definition": "A study of the relative therapeutic efficacy of treatment of a disease. Usually this is a Phase II or III study. (NCI)"
      },
      {
        "code": "C98729",
        "term": "FOOD EFFECT",
        "synonyms": null,
        "definition": "Studies that are conducted to assess the effect of food on the rate and extent of absorption of a drug, either compared to a fasted state or to a reference drug."
      },
      {
        "code": "C120842",
        "term": "IMMUNOGENICITY",
        "synonyms": null,
        "definition": "A study that assesses an agent's ability to provoke an immune response."
      },
      {
        "code": "C201484",
        "term": "MASS BALANCE",
        "synonyms": null,
        "definition": "A type of study designed to evaluate the overall pathways of metabolism and excretion of a drug, and to identify and/or quantify metabolites in plasma and excreta."
      },
      {
        "code": "C49662",
        "term": "PHARMACODYNAMIC",
        "synonyms": null,
        "definition": "A study of the biochemical and physiological effect of a drug and the mechanism of drug action and the relationship between drug concentration and effect. (NCI)"
      },
      {
        "code": "C39493",
        "term": "PHARMACOECONOMIC",
        "synonyms": null,
        "definition": "A study that assesses the value associated with a given drug in therapeutic and economic terms. This type of study is multidisciplinary in nature and takes into consideration the social and economic costs (resource utilization costs including direct, indirect, and intangible costs) of drug therapy in addition to its direct therapeutic benefits. Analyses relate the difference in therapeutic benefits to the difference in costs between treatment alternatives. (NCI)"
      },
      {
        "code": "C129001",
        "term": "PHARMACOGENETIC",
        "synonyms": null,
        "definition": "A study that assesses variation in DNA sequence, usually within a single gene, and its effect on drug response."
      },
      {
        "code": "C49661",
        "term": "PHARMACOGENOMIC",
        "synonyms": null,
        "definition": "A study that identifies or assesses variations within the entire genome, including DNA, RNA, or transcriptional elements, and its effects on drug response."
      },
      {
        "code": "C49663",
        "term": "PHARMACOKINETIC",
        "synonyms": null,
        "definition": "A study of the process by which a drug is absorbed, distributed, metabolized, and eliminated by the body. (NCI)"
      },
      {
        "code": "C161477",
        "term": "POSITION EFFECT",
        "synonyms": null,
        "definition": "A type of study designed to evaluate the effect of body position during and/or after administration of the investigational product."
      },
      {
        "code": "C49657",
        "term": "PREVENTION",
        "synonyms": "Prophylaxis Study",
        "definition": "A type of study designed to identify actions necessary to permanently eliminate or reduce the long-term risk to human life as a result of a particular medication or treatment regimen."
      },
      {
        "code": "C174366",
        "term": "REACTOGENICITY",
        "synonyms": null,
        "definition": "A type of study designed to evaluate the expected, acute types of immunological responses, sometimes considered excessive, following agent administration."
      },
      {
        "code": "C49667",
        "term": "SAFETY",
        "synonyms": null,
        "definition": "A study that assesses the medical risks to a subject. Safety is usually assessed by examining a wide range of clinical parameters, including adverse events, vital signs, physical exam, laboratory tests."
      },
      {
        "code": "C161478",
        "term": "SWALLOWING FUNCTION",
        "synonyms": null,
        "definition": "A type of study designed to evaluate the effect of the investigational product on the physiologic act of swallowing."
      },
      {
        "code": "C158287",
        "term": "THOROUGH QT",
        "synonyms": "TQT Study",
        "definition": "A type of study designed to evaluate the ability of an investigational product and/or approved drug to delay cardiac ventricular repolarization as detected by QT prolongation and other ECG parameters."
      },
      {
        "code": "C98791",
        "term": "TOLERABILITY",
        "synonyms": null,
        "definition": "A type of safety study that assesses the degree to which overt adverse effects can be tolerated by the subject."
      },
      {
        "code": "C49656",
        "term": "TREATMENT",
        "synonyms": "Therapy Trial",
        "definition": "A type of study designed to evaluate intervention(s) for treatment of disease, syndrome or condition."
      },
      {
        "code": "C161479",
        "term": "USABILITY TESTING",
        "synonyms": null,
        "definition": "A type of study designed to evaluate the user experience with a product."
      },
      {
        "code": "C161480",
        "term": "WATER EFFECT",
        "synonyms": null,
        "definition": "A type of study designed to evaluate the effects of water on investigational product safety and/or efficacy."
      }
    ]
  },
  "Study.studyType": {
    "codelist_code": "C66742",
    "extensible": false,
    "values": [
      {
        "code": "C49487",
        "term": "N",
        "synonyms": "No",
        "definition": "The non-affirmative response to a question. (NCI)"
      },
      {
        "code": "C48660",
        "term": "NA",
        "synonyms": "NA, Not Applicable",
        "definition": "Determination of a value is not relevant in the current context. (NCI)"
      },
      {
        "code": "C17998",
        "term": "U",
        "synonyms": "U, UNK, Unknown",
        "definition": "Not known, not observed, not recorded, or refused. (NCI)"
      },
      {
        "code": "C49488",
        "term": "Y",
        "synonyms": "Yes",
        "definition": "The affirmative response to a question. (NCI)"
      }
    ]
  },
  "Range.ageUnit": {
    "codelist_code": "C66781",
    "extensible": false,
    "values": [
      {
        "code": "C25301",
        "term": "DAYS",
        "synonyms": null,
        "definition": "A unit of measurement of time equal to 24 hours."
      },
      {
        "code": "C25529",
        "term": "HOURS",
        "synonyms": "h, Hours, hr",
        "definition": "A unit of measurement of time equal to 60 minutes."
      },
      {
        "code": "C29846",
        "term": "MONTHS",
        "synonyms": "Month",
        "definition": "One of the 12 divisions of a year as determined by a calendar. It corresponds to the unit of time of approximately to one cycle of the moon's phases, about 30 days or 4 weeks. (NCI)"
      },
      {
        "code": "C29844",
        "term": "WEEKS",
        "synonyms": "Week",
        "definition": "Any period of seven consecutive days. (NCI)"
      },
      {
        "code": "C29848",
        "term": "YEARS",
        "synonyms": "Year",
        "definition": "The period of time that it takes for Earth to make a complete revolution around the sun, approximately 365 days; a specific one year period. (NCI)"
      }
    ]
  },
  "EligibilityCriterion.category": {
    "codelist_code": "C66797",
    "extensible": false,
    "values": [
      {
        "code": "C25370",
        "term": "EXCLUSION",
        "synonyms": null,
        "definition": "List of characteristics in a protocol, any one of which makes a potential subject ineligible to participate in a study."
      },
      {
        "code": "C25532",
        "term": "INCLUSION",
        "synonyms": null,
        "definition": "The criteria in a protocol that prospective subjects must meet to be eligible to participate in a study."
      }
    ]
  },
  "Administration.frequency": {
    "codelist_code": "C71113",
    "extensible": true,
    "values": [
      {
        "code": "C64526",
        "term": "1 TIME PER WEEK",
        "synonyms": "One Time Per Week",
        "definition": "One time per week. (NCI)"
      },
      {
        "code": "C139179",
        "term": "10 DAYS PER MONTH",
        "synonyms": "10 Days Monthly",
        "definition": "Ten days per month. (NCI)"
      },
      {
        "code": "C176288",
        "term": "2 TIMES PER CYCLE",
        "synonyms": null,
        "definition": "Two times per cycle."
      },
      {
        "code": "C64497",
        "term": "2 TIMES PER WEEK",
        "synonyms": "BIS, Twice per week",
        "definition": "Two times per week. (NCI)"
      },
      {
        "code": "C98861",
        "term": "2 TIMES PER YEAR",
        "synonyms": "2 Times Per Year",
        "definition": "Two times per year. (NCI)"
      },
      {
        "code": "C176289",
        "term": "3 TIMES PER CYCLE",
        "synonyms": null,
        "definition": "Three times per cycle."
      },
      {
        "code": "C98859",
        "term": "3 TIMES PER MONTH",
        "synonyms": "3 Times Per Month",
        "definition": "Three times per month. (NCI)"
      },
      {
        "code": "C64528",
        "term": "3 TIMES PER WEEK",
        "synonyms": "Three times a week, TIS",
        "definition": "Three times per week. (NCI)"
      },
      {
        "code": "C98860",
        "term": "3 TIMES PER YEAR",
        "synonyms": "3 Times Per Year",
        "definition": "Three times per year. (NCI)"
      },
      {
        "code": "C98852",
        "term": "4 TIMES PER MONTH",
        "synonyms": "4 Times Per Month",
        "definition": "Four times per month. (NCI)"
      },
      {
        "code": "C64531",
        "term": "4 TIMES PER WEEK",
        "synonyms": "4 times per week, QIS",
        "definition": "Four times per week. (NCI)"
      },
      {
        "code": "C98853",
        "term": "4 TIMES PER YEAR",
        "synonyms": "4 Times Per Year",
        "definition": "Four times per year. (NCI)"
      },
      {
        "code": "C98849",
        "term": "5 TIMES PER DAY",
        "synonyms": "5 Times Daily",
        "definition": "Five times per day. (NCI)"
      },
      {
        "code": "C98850",
        "term": "5 TIMES PER MONTH",
        "synonyms": "5 Times Per Month",
        "definition": "Five times per month. (NCI)"
      },
      {
        "code": "C85552",
        "term": "5 TIMES PER WEEK",
        "synonyms": "5 Times Per Week",
        "definition": "Five times per week. (NCI)"
      },
      {
        "code": "C98851",
        "term": "5 TIMES PER YEAR",
        "synonyms": "5 Times Per Year",
        "definition": "Five times per year. (NCI)"
      },
      {
        "code": "C98855",
        "term": "6 TIMES PER DAY",
        "synonyms": "6 Times Daily",
        "definition": "Six times per day. (NCI)"
      },
      {
        "code": "C98856",
        "term": "6 TIMES PER MONTH",
        "synonyms": "6 Times Per Month",
        "definition": "Six times per month. (NCI)"
      },
      {
        "code": "C98857",
        "term": "6 TIMES PER WEEK",
        "synonyms": "6 Times Per Week",
        "definition": "Six times per week. (NCI)"
      },
      {
        "code": "C98858",
        "term": "6 TIMES PER YEAR",
        "synonyms": "6 Times Per Year",
        "definition": "Six times per year. (NCI)"
      },
      {
        "code": "C139180",
        "term": "7 TIMES PER DAY",
        "synonyms": "7 Times Daily",
        "definition": "Seven times per day. (NCI)"
      },
      {
        "code": "C98854",
        "term": "7 TIMES PER WEEK",
        "synonyms": "7 Times Per Week",
        "definition": "Seven times per week. (NCI)"
      },
      {
        "code": "C139181",
        "term": "8 TIMES PER DAY",
        "synonyms": "8 Times Daily",
        "definition": "Eight times per day. (NCI)"
      },
      {
        "code": "C139182",
        "term": "9 TIMES PER DAY",
        "synonyms": "9 Times Daily",
        "definition": "Nine times per day. (NCI)"
      },
      {
        "code": "C64636",
        "term": "AD LIBITUM",
        "synonyms": "Ad Libitum",
        "definition": "As much as desired."
      },
      {
        "code": "C64496",
        "term": "BID",
        "synonyms": "BD, Twice per day",
        "definition": "Two times per day, at unspecified times. (NCI)"
      },
      {
        "code": "C71129",
        "term": "BIM",
        "synonyms": "Twice per month",
        "definition": "Twice per month. (NCI)"
      },
      {
        "code": "C53279",
        "term": "CONTINUOUS",
        "synonyms": "Continuous",
        "definition": "Remain in force or carry on without letup; keep or maintain in unaltered condition; exist in time or space without stop or interruption. (NCI)"
      },
      {
        "code": "C189433",
        "term": "EVERY 10 WEEKS",
        "synonyms": "Every 10 Weeks, Q10S",
        "definition": "Every 10 weeks."
      },
      {
        "code": "C189435",
        "term": "EVERY 10 YEARS",
        "synonyms": null,
        "definition": "Every 10 years."
      },
      {
        "code": "C161332",
        "term": "EVERY 12 WEEKS",
        "synonyms": "Q12S",
        "definition": "Every twelve weeks."
      },
      {
        "code": "C189434",
        "term": "EVERY 13 WEEKS",
        "synonyms": "Every 13 Weeks, Q13S",
        "definition": "Every 13 weeks."
      },
      {
        "code": "C161336",
        "term": "EVERY 16 WEEKS",
        "synonyms": "Q16S",
        "definition": "Every sixteen weeks."
      },
      {
        "code": "C71127",
        "term": "EVERY 2 WEEKS",
        "synonyms": "Every 2 weeks, Q2S",
        "definition": "Every two weeks. (NCI)"
      },
      {
        "code": "C64535",
        "term": "EVERY 3 WEEKS",
        "synonyms": "Every 3 weeks, Q3S",
        "definition": "Every three weeks. (NCI)"
      },
      {
        "code": "C161333",
        "term": "EVERY 3 YEARS",
        "synonyms": null,
        "definition": "Every three years."
      },
      {
        "code": "C64529",
        "term": "EVERY 4 WEEKS",
        "synonyms": "Every 4 weeks, Q4S",
        "definition": "Every four weeks. (NCI)"
      },
      {
        "code": "C189432",
        "term": "EVERY 4 YEARS",
        "synonyms": null,
        "definition": "Every four years."
      },
      {
        "code": "C103390",
        "term": "EVERY 5 WEEKS",
        "synonyms": "Every 5 weeks, Q5S",
        "definition": "Every five weeks. (NCI)"
      },
      {
        "code": "C161334",
        "term": "EVERY 5 YEARS",
        "synonyms": null,
        "definition": "Every five years."
      },
      {
        "code": "C89788",
        "term": "EVERY 6 WEEKS",
        "synonyms": "Every 6 Weeks, Q6S",
        "definition": "Every six weeks. (NCI)"
      },
      {
        "code": "C116149",
        "term": "EVERY 7 WEEKS",
        "synonyms": "Every 7 weeks, Q7S",
        "definition": "Every seven weeks."
      },
      {
        "code": "C103389",
        "term": "EVERY 8 WEEKS",
        "synonyms": "Every 8 weeks, Q8S",
        "definition": "Every eight weeks. (NCI)"
      },
      {
        "code": "C201379",
        "term": "EVERY 8 YEARS",
        "synonyms": null,
        "definition": "Every eight years."
      },
      {
        "code": "C154484",
        "term": "EVERY AFTERNOON",
        "synonyms": null,
        "definition": "Every afternoon."
      },
      {
        "code": "C160957",
        "term": "EVERY EVENING",
        "synonyms": null,
        "definition": "Every evening."
      },
      {
        "code": "C67069",
        "term": "EVERY WEEK",
        "synonyms": "Every week, Per Week, QS",
        "definition": "Every week. (NCI)"
      },
      {
        "code": "C71325",
        "term": "INTERMITTENT",
        "synonyms": "Intermittent",
        "definition": "Periodically stopping and starting. (NCI)"
      },
      {
        "code": "C64954",
        "term": "OCCASIONAL",
        "synonyms": "Occasional",
        "definition": "Not occurring regularly or at short intervals."
      },
      {
        "code": "C64576",
        "term": "ONCE",
        "synonyms": null,
        "definition": "One time."
      },
      {
        "code": "C74924",
        "term": "PA",
        "synonyms": "/Year, Every Year, Per Annum, Per Year",
        "definition": "A frequency rate of occurrences of something within a period of time equal to three hundred sixty-five days."
      },
      {
        "code": "C64499",
        "term": "PRN",
        "synonyms": "As needed",
        "definition": "As needed. (NCI)"
      },
      {
        "code": "C64500",
        "term": "Q10H",
        "synonyms": "Every 10 hours",
        "definition": "Every ten hours. (NCI)"
      },
      {
        "code": "C64501",
        "term": "Q11H",
        "synonyms": "Every 11 hours",
        "definition": "Every eleven hours. (NCI)"
      },
      {
        "code": "C64502",
        "term": "Q12H",
        "synonyms": "Every 12 hours",
        "definition": "Every twelve hours. (NCI)"
      },
      {
        "code": "C64503",
        "term": "Q13H",
        "synonyms": "Every 13 hours",
        "definition": "Every thirteen hours. (NCI)"
      },
      {
        "code": "C64504",
        "term": "Q14H",
        "synonyms": "Every 14 hours",
        "definition": "Every fourteen hours. (NCI)"
      },
      {
        "code": "C64505",
        "term": "Q15H",
        "synonyms": "Every 15 hours",
        "definition": "Every fifteen hours. (NCI)"
      },
      {
        "code": "C64506",
        "term": "Q16H",
        "synonyms": "Every 16 hours",
        "definition": "Every sixteen hours. (NCI)"
      },
      {
        "code": "C64507",
        "term": "Q17H",
        "synonyms": "Every 17 hours",
        "definition": "Every seventeen hours. (NCI)"
      },
      {
        "code": "C64508",
        "term": "Q18H",
        "synonyms": "Every 18 hours",
        "definition": "Every eighteen hours. (NCI)"
      },
      {
        "code": "C64509",
        "term": "Q19H",
        "synonyms": "Every 19 hours",
        "definition": "Every nineteen hours. (NCI)"
      },
      {
        "code": "C64511",
        "term": "Q20H",
        "synonyms": "Every 20 hours",
        "definition": "Every twenty hours. (NCI)"
      },
      {
        "code": "C64512",
        "term": "Q21H",
        "synonyms": "Every 21 hours",
        "definition": "Every twenty-one hours. (NCI)"
      },
      {
        "code": "C64513",
        "term": "Q22H",
        "synonyms": "Every 22 hours",
        "definition": "Every twenty-two hours. (NCI)"
      },
      {
        "code": "C64514",
        "term": "Q23H",
        "synonyms": "Every 23 hours",
        "definition": "Every twenty-three hours. (NCI)"
      },
      {
        "code": "C64515",
        "term": "Q24H",
        "synonyms": "Every 24 hours",
        "definition": "Every twenty-four hours. (NCI)"
      },
      {
        "code": "C64516",
        "term": "Q2H",
        "synonyms": "Every 2 hours",
        "definition": "Every two hours. (NCI)"
      },
      {
        "code": "C64536",
        "term": "Q2M",
        "synonyms": "Every two months",
        "definition": "Every two months. (NCI)"
      },
      {
        "code": "C89791",
        "term": "Q36H",
        "synonyms": "Every 36 Hours",
        "definition": "Every thirty-six hours. (NCI)"
      },
      {
        "code": "C64533",
        "term": "Q3D",
        "synonyms": "Every 3 days",
        "definition": "Every three days. (NCI)"
      },
      {
        "code": "C64517",
        "term": "Q3H",
        "synonyms": "Every 3 hours",
        "definition": "Every three hours. (NCI)"
      },
      {
        "code": "C64537",
        "term": "Q3M",
        "synonyms": "Every 3 months",
        "definition": "Every three months. (NCI)"
      },
      {
        "code": "C139183",
        "term": "Q45MIN",
        "synonyms": "Every 45 Minutes",
        "definition": "Every forty-five minutes. (NCI)"
      },
      {
        "code": "C89790",
        "term": "Q48H",
        "synonyms": "Every 48 Hours",
        "definition": "Every forty-eight hours. (NCI)"
      },
      {
        "code": "C64534",
        "term": "Q4D",
        "synonyms": "Every 4 days",
        "definition": "Every four days. (NCI)"
      },
      {
        "code": "C64518",
        "term": "Q4H",
        "synonyms": "Every 4 hours",
        "definition": "Every four hours. (NCI)"
      },
      {
        "code": "C64538",
        "term": "Q4M",
        "synonyms": "Every 4 months",
        "definition": "Every four months. (NCI)"
      },
      {
        "code": "C71124",
        "term": "Q5D",
        "synonyms": "Every 5 days",
        "definition": "Every five days. (NCI)"
      },
      {
        "code": "C64519",
        "term": "Q5H",
        "synonyms": "Every 5 hours",
        "definition": "Every five hours. (NCI)"
      },
      {
        "code": "C161335",
        "term": "Q6D",
        "synonyms": null,
        "definition": "Every six days."
      },
      {
        "code": "C64520",
        "term": "Q6H",
        "synonyms": "Every 6 hours",
        "definition": "Every six hours. (NCI)"
      },
      {
        "code": "C89789",
        "term": "Q6M",
        "synonyms": "Every 6 Months",
        "definition": "Every six months. (NCI)"
      },
      {
        "code": "C174288",
        "term": "Q72H",
        "synonyms": "Every 72 hours",
        "definition": "Every seventy-two hours."
      },
      {
        "code": "C139177",
        "term": "Q7D",
        "synonyms": "Every 7 Days",
        "definition": "Every seven days. (NCI)"
      },
      {
        "code": "C64521",
        "term": "Q7H",
        "synonyms": "Every 7 hours",
        "definition": "Every seven hours. (NCI)"
      },
      {
        "code": "C64523",
        "term": "Q8H",
        "synonyms": "Every 8 hours",
        "definition": "Every eight hours. (NCI)"
      },
      {
        "code": "C189436",
        "term": "Q96H",
        "synonyms": "Every 96 Hours",
        "definition": "Every 96 hours."
      },
      {
        "code": "C64524",
        "term": "Q9H",
        "synonyms": "Every 9 hours",
        "definition": "Every nine hours. (NCI)"
      },
      {
        "code": "C64595",
        "term": "QAM",
        "synonyms": "Every Morning",
        "definition": "Every morning. (NCI)"
      },
      {
        "code": "C25473",
        "term": "QD",
        "synonyms": "/day, Daily, Per Day",
        "definition": "A rate of occurrences within a period of time equal to one day."
      },
      {
        "code": "C64510",
        "term": "QH",
        "synonyms": "Every hour",
        "definition": "Every hour. (NCI)"
      },
      {
        "code": "C64593",
        "term": "QHS",
        "synonyms": null,
        "definition": "Every day at bedtime."
      },
      {
        "code": "C64530",
        "term": "QID",
        "synonyms": "4 times per day",
        "definition": "Four times per day. (NCI)"
      },
      {
        "code": "C64498",
        "term": "QM",
        "synonyms": "Every Month, Per Month",
        "definition": "Every month. (NCI)"
      },
      {
        "code": "C139178",
        "term": "QN",
        "synonyms": null,
        "definition": "Every night."
      },
      {
        "code": "C64525",
        "term": "QOD",
        "synonyms": "Every other day, Every Second Day, Every Two Days, Q2D",
        "definition": "Every other day. (NCI)"
      },
      {
        "code": "C64596",
        "term": "QPM",
        "synonyms": null,
        "definition": "Every day, on or after 12:00 pm."
      },
      {
        "code": "C156502",
        "term": "THRICE",
        "synonyms": null,
        "definition": "Three times."
      },
      {
        "code": "C64527",
        "term": "TID",
        "synonyms": "3 times per day",
        "definition": "Three times per day. (NCI)"
      },
      {
        "code": "C65134",
        "term": "TWICE",
        "synonyms": null,
        "definition": "Two times. (NCI)"
      },
      {
        "code": "C17998",
        "term": "UNKNOWN",
        "synonyms": "U, UNK, Unknown",
        "definition": "Not known, not observed, not recorded, or refused. (NCI)"
      }
    ]
  },
  "Unit.code": {
    "codelist_code": "C71620",
    "extensible": true,
    "values": [
      {
        "code": "C117963",
        "term": "% INHIBITION",
        "synonyms": "Percent Inhibition",
        "definition": "The rate of measured normal activity minus inhibited activity, divided by the rate of normal activity of a given object. It is expressed as a percentage."
      },
      {
        "code": "C25613",
        "term": "%",
        "synonyms": "Percentage",
        "definition": "One hundred times the quotient of one quantity divided by another, with the same units of measurement."
      },
      {
        "code": "C48571",
        "term": "%(v/v)",
        "synonyms": "Percent Volume per Volume, vol%",
        "definition": "A percent ratio of volume to volume, defined by the equation: [volume of solute (in ml)/ volume of solution (in ml)](100), typically used for admixtures of solutions.(NCI)"
      },
      {
        "code": "C48527",
        "term": "%(w/v)",
        "synonyms": "Percent Weight per Volume",
        "definition": "A percent ratio of weight to volume, defined by the equation: [weight of solute (in gm)/volume of solution (in dl)](100). Since the numerator and denominator of this ratio have different units, it is not a true percentage. A 1% w/v solution is defined as being 1 gram of solute dissolved in 100 milliliters of solvent.(NCI)"
      },
      {
        "code": "C48528",
        "term": "%(w/w)",
        "synonyms": "Percent Weight per Weight",
        "definition": "A percent ratio of weight to weight, defined by the equation: [weight of solute (in gm)/weight of solution (in gm)](100).(NCI)"
      },
      {
        "code": "C187981",
        "term": "%*min/h",
        "synonyms": "min*%/h",
        "definition": "A unit of measurement expressed as the percentage times minutes divided by hours."
      },
      {
        "code": "C114240",
        "term": "%/min",
        "synonyms": "Percent per Minute",
        "definition": "A unit of frequency expressed as the percentage of entities or events per minute."
      },
      {
        "code": "C163560",
        "term": "%/s",
        "synonyms": "Percent per Second",
        "definition": "A unit of frequency expressed as the percentage of entities or events per second."
      },
      {
        "code": "C201486",
        "term": "(mmHg*min/L)*m2",
        "synonyms": "mmHg*min*m2/L",
        "definition": "A unit of resistance equal to the number of millimeters of mercury times minutes, per unit of volume equal to one liter times meters squared."
      },
      {
        "code": "C158699",
        "term": "/10 HPFs",
        "synonyms": "Per 10 High Powered Fields",
        "definition": "A unit of measurement of the number of entities per unit of area equal to ten high powered fields."
      },
      {
        "code": "C202453",
        "term": "/100 Cells",
        "synonyms": null,
        "definition": "Natural number unit of measurement for a portion of a particular type of entities per 100 total cells."
      },
      {
        "code": "C209700",
        "term": "/100 Enterocytes",
        "synonyms": null,
        "definition": "Natural number unit of measurement for a portion of a particular type of cell per one hundred enterocytes."
      },
      {
        "code": "C102695",
        "term": "/100 HPFs",
        "synonyms": "Per 100 High Powered Fields",
        "definition": "A unit of measurement of the number of entities per unit of area equal to one hundred high powered fields."
      },
      {
        "code": "C191358",
        "term": "/100 RBC",
        "synonyms": null,
        "definition": "Natural number unit of measurement for a portion of a particular type of cell (excluding red blood cell subtypes) per one hundred red blood cells."
      },
      {
        "code": "C67219",
        "term": "/100 WBC",
        "synonyms": "Per 100 White Blood Cells",
        "definition": "Natural number unit of measurement for a portion of a particular type of cell (excluding white blood cell subtypes) per 100 white blood cells."
      },
      {
        "code": "C199995",
        "term": "/100x FIELD",
        "synonyms": "per 100x Field",
        "definition": "A unit of measurement of the number of entities per microscopic field at 100x magnification."
      },
      {
        "code": "C191359",
        "term": "/10^3 RBC",
        "synonyms": "/1000 RBC",
        "definition": "Natural number unit of measurement for a portion of a particular type of cell (excluding red blood cell subtypes) per one thousand red blood cells."
      },
      {
        "code": "C123634",
        "term": "/10^3",
        "synonyms": null,
        "definition": "A unit equal to one thousand entities used as a denominator to build a derived unit expressed as a ratio. (NCI)"
      },
      {
        "code": "C135515",
        "term": "/10^4",
        "synonyms": null,
        "definition": "A unit equal to ten thousand entities used as a denominator to build a derived unit expressed as a ratio. (NCI)"
      },
      {
        "code": "C135516",
        "term": "/10^5",
        "synonyms": null,
        "definition": "A unit equal to one hundred thousand entities used as a denominator to build a derived unit expressed as a ratio. (NCI)"
      },
      {
        "code": "C184719",
        "term": "/10^6",
        "synonyms": null,
        "definition": "A unit equal to one million entities used as a denominator to build a derived unit expressed as a ratio. (NCI)"
      },
      {
        "code": "C189646",
        "term": "/2 mm2",
        "synonyms": null,
        "definition": "A unit equal to two square millimeters used as a denominator to build a derived unit expressed as a ratio."
      },
      {
        "code": "C132472",
        "term": "/200 HPFs",
        "synonyms": "Per 200 High Powered Fields",
        "definition": "A unit of measurement of the number of entities per unit of area equal to 200 high powered fields."
      },
      {
        "code": "C132473",
        "term": "/2000 RBC",
        "synonyms": "/2x10^3 RBC",
        "definition": "Natural number unit of measurement for a portion of a particular type of cell (excluding red blood cell subtypes) per 2000 red blood cells."
      },
      {
        "code": "C132474",
        "term": "/2500 WBC",
        "synonyms": null,
        "definition": "Natural number unit of measurement for a portion of a particular type of cell (excluding white blood cell subtypes) per 2500 white blood cells."
      },
      {
        "code": "C122197",
        "term": "/4.0 mL",
        "synonyms": null,
        "definition": "A volume unit equal to 4.0 milliliters used as a denominator to build a derived unit expressed as a ratio."
      },
      {
        "code": "C132475",
        "term": "/40 HPFs",
        "synonyms": "Per 40 High Powered Fields",
        "definition": "A unit of measurement of the number of entities per unit of area equal to 40 high powered fields."
      },
      {
        "code": "C191355",
        "term": "/400 Cells",
        "synonyms": null,
        "definition": "Natural number unit of measurement for a portion of a particular type of entities per 400 total cells."
      },
      {
        "code": "C202452",
        "term": "/50 Cells",
        "synonyms": null,
        "definition": "Natural number unit of measurement for a portion of a particular type of entities per 50 total cells."
      },
      {
        "code": "C132476",
        "term": "/500 WBC",
        "synonyms": null,
        "definition": "Natural number unit of measurement for a portion of a particular type of cell (excluding white blood cell subtypes) per 500 white blood cells."
      },
      {
        "code": "C170636",
        "term": "/5x10^4 WBC",
        "synonyms": null,
        "definition": "Natural number unit of measurement for a portion of a particular type of cell (excluding white blood cell subtypes) per 50,000 white blood cells."
      },
      {
        "code": "C122198",
        "term": "/7.5 mL",
        "synonyms": null,
        "definition": "A volume unit equal to 7.5 milliliters used as a denominator to build a derived unit expressed as a ratio."
      },
      {
        "code": "C198368",
        "term": "/animal",
        "synonyms": "Per Animal",
        "definition": "A unit equal to one animal used as a denominator to build a derived unit expressed as a ratio."
      },
      {
        "code": "C202454",
        "term": "/Cell",
        "synonyms": null,
        "definition": "Natural number unit of measurement for a portion of a particular type of entities per one cell."
      },
      {
        "code": "C204709",
        "term": "/cm3",
        "synonyms": null,
        "definition": "A volume unit equal to one centimeter cubed used as a denominator to build a derived unit expressed as a ratio."
      },
      {
        "code": "C135517",
        "term": "/cmH2O",
        "synonyms": null,
        "definition": "A unit of pressure equal to one centimeter of water used as a denominator to build a derived unit expressed as a ratio. (NCI)"
      },
      {
        "code": "C25473",
        "term": "/day",
        "synonyms": "/day, Daily, Per Day",
        "definition": "A rate of occurrences within a period of time equal to one day."
      },
      {
        "code": "C209701",
        "term": "/EXOME",
        "synonyms": "/Whole Exome, /Whole-Exome",
        "definition": "A unit equal to an exome used as a denominator to build a derived unit expressed as a ratio."
      },
      {
        "code": "C198369",
        "term": "/g",
        "synonyms": "Per Gram",
        "definition": "A unit equal to one gram used as a denominator to build a derived unit expressed as a ratio."
      },
      {
        "code": "C66966",
        "term": "/h",
        "synonyms": "Per Hour",
        "definition": "A rate of occurrences within a period of time equal to one hour."
      },
      {
        "code": "C96619",
        "term": "/HPF",
        "synonyms": "Per High Powered Field",
        "definition": "A unit of measure equal to the instances of an entity per visual field of a microscope set to a high magnification power."
      },
      {
        "code": "C120844",
        "term": "/kg",
        "synonyms": null,
        "definition": "A unit equal to one kilogram used as a denominator to build a derived unit expressed as a ratio. (NCI)"
      },
      {
        "code": "C96620",
        "term": "/LPF",
        "synonyms": "Per Low Powered Field",
        "definition": "A unit of measure equal to the instances of an entity per visual field of a microscope set to a low magnification power."
      },
      {
        "code": "C130187",
        "term": "/LSQN",
        "synonyms": "/Large Square Neubauer",
        "definition": "A unit of measure equal to the instances of an entity per large square (with a 1 mm2 area) in a Neubauer chamber."
      },
      {
        "code": "C176387",
        "term": "/MBP",
        "synonyms": "/10^6 BP, /Mb, /Mbp, Per Megabase Pair",
        "definition": "A unit equal to one million base pairs used as a denominator to build a derived unit expressed as a ratio."
      },
      {
        "code": "C66967",
        "term": "/min",
        "synonyms": null,
        "definition": "A rate of occurrences within a period of time equal to one minute."
      },
      {
        "code": "C130188",
        "term": "/mm",
        "synonyms": null,
        "definition": "A unit of length equal to one millimeter used as a denominator to build a derived unit expressed as a ratio."
      },
      {
        "code": "C122199",
        "term": "/mm2",
        "synonyms": null,
        "definition": "An area unit equal to one millimeter squared used as a denominator to build a derived unit expressed as a ratio."
      },
      {
        "code": "C64498",
        "term": "/month",
        "synonyms": "Every Month, Per Month",
        "definition": "Every month. (NCI)"
      },
      {
        "code": "C161490",
        "term": "/ms",
        "synonyms": "1/ms, ms^-1, Reciprocal of Millisecond",
        "definition": "A rate of occurrences within a period of time equal to one second."
      },
      {
        "code": "C204701",
        "term": "/PLATE",
        "synonyms": "Per Culture Plate, Per Plate",
        "definition": "A unit of measure equal to the instances of an entity per culture plate."
      },
      {
        "code": "C66965",
        "term": "/s",
        "synonyms": "/sec",
        "definition": "A rate of occurrences within a period of time equal to one second."
      },
      {
        "code": "C105516",
        "term": "/VF",
        "synonyms": "Per Visual Field",
        "definition": "A unit of measure equal to the instances of an entity per visual field of a microscope. (NCI)"
      },
      {
        "code": "C67069",
        "term": "/wk",
        "synonyms": "Every week, Per Week, QS",
        "definition": "Every week. (NCI)"
      },
      {
        "code": "C127804",
        "term": "1/(s*kPa)",
        "synonyms": "/(s*kPa)",
        "definition": "A unit of resistance equal to the inverse of one second times one kilopascal."
      },
      {
        "code": "C199992",
        "term": "10 copies/mL",
        "synonyms": "10^1 copies/mL, Ten Copies per Milliliter",
        "definition": "A unit of measurement equal to ten copies of an entity per unit of volume equal to one milliliter."
      },
      {
        "code": "C199993",
        "term": "10 IU/mL",
        "synonyms": "10^1 IU/mL, Ten International Units per Milliliter",
        "definition": "A unit of measurement equal to ten international units of an entity per unit of volume equal to one milliliter."
      },
      {
        "code": "C199994",
        "term": "100 copies/mL",
        "synonyms": "10^2 copies/mL, Hundred copies per Milliliter",
        "definition": "A unit of measurement equal to one hundred copies of an entity per unit of volume equal to one milliliter."
      },
      {
        "code": "C71185",
        "term": "100 IU/mL",
        "synonyms": "100 International units/Milliliter, 10^2 IU/mL, 10^5 IU/L",
        "definition": "A unit of arbitrary substance concentration (biologic activity concentration) defined as the concentration of one hundred international units per one milliliter of system volume.(NCI)"
      },
      {
        "code": "C198370",
        "term": "10^10 copies/mL",
        "synonyms": "Ten Billion Copies per Milliliter",
        "definition": "The unit of concentration expressed as the number of 10 to the tenth power copies in unit volume equal to one milliliter. (NCI)"
      },
      {
        "code": "C198371",
        "term": "10^10 IU/mL",
        "synonyms": "Ten Billion International Units per Milliliter",
        "definition": "A unit of measurement equal to 10 to the tenth power of the number of international units of an entity per unit of volume equal to one milliliter."
      },
      {
        "code": "C198372",
        "term": "10^10 vp/dose",
        "synonyms": "10^10 Viral Particles/dose",
        "definition": "A unit for virus amount equal to 10 to the tenth power of the number of viral particles per dose."
      },
      {
        "code": "C198373",
        "term": "10^10 vp/mL",
        "synonyms": "10^10 Viral Particles/mL",
        "definition": "A unit for virus concentration equal to 10 to the tenth power of the number of viral particles per milliliter."
      },
      {
        "code": "C105517",
        "term": "10^10/L",
        "synonyms": "10^4/mm3, 10^4/uL, 10^7/mL",
        "definition": "A unit of measurement equal to 10 to the tenth power of entities per unit of volume equal to one liter. (NCI)"
      },
      {
        "code": "C105488",
        "term": "10^11/L",
        "synonyms": "10^5/mm3, 10^5/uL, 10^8/mL",
        "definition": "A unit of measurement equal to 10 to the eleventh power of entities per unit of volume equal to one liter."
      },
      {
        "code": "C105518",
        "term": "10^12 IU/L",
        "synonyms": "Tera International Unit per Liter, TIU/L",
        "definition": "Unit of arbitrary substance concentration (biologic activity concentration) defined as the concentration of 10^12 international unit per one liter of system volume.(NCI)"
      },
      {
        "code": "C67308",
        "term": "10^12/L",
        "synonyms": "/pL, 1/pL, 10^6/mm3, 10^6/uL, M/uL, Mill/mcL, T/L, Tera/L, TI/L",
        "definition": "A unit of measurement equal to 10 to the twelfth power of the number of entities per unit of volume equal to one liter."
      },
      {
        "code": "C68895",
        "term": "10^3 CFU",
        "synonyms": "Thousand CFU, Thousand Colony Forming Units",
        "definition": "A unit of measurement of colony forming cells or microorganisms equal to 10 to the third power colony forming units."
      },
      {
        "code": "C68899",
        "term": "10^3 CFU/g",
        "synonyms": "Thousand CFU/g, Thousand Colony Forming Units per Gram",
        "definition": "A unit of measurement of colony forming cells or microorganisms equal to 10 to the third power colony forming units."
      },
      {
        "code": "C68903",
        "term": "10^3 CFU/mL",
        "synonyms": "Thousand CFU/mL, Thousand Colony Forming Units per Milliliter",
        "definition": "A unit of measurement of colony forming cells or microorganisms in a unit volume of substance of interest defined as the number of 10 to the third power colony forming units in one milliliter of substance."
      },
      {
        "code": "C100897",
        "term": "10^3 copies/mL",
        "synonyms": null,
        "definition": "The unit of concentration expressed as the number of 10 to the third power copies in unit volume equal to one milliliter. (NCI)"
      },
      {
        "code": "C98788",
        "term": "10^3 DNA copies/mL",
        "synonyms": null,
        "definition": "A unit of measurement equal to 10 to the third power of the number of deoxyribonucleic acid (DNA) copies per unit of volume equal to one milliliter."
      },
      {
        "code": "C198374",
        "term": "10^3 IU/mL",
        "synonyms": "Thousand International Units per Milliliter",
        "definition": "A unit of measurement equal to 10 to the third power of the number of international units of an entity per unit of volume equal to one milliliter."
      },
      {
        "code": "C71187",
        "term": "10^3 organisms",
        "synonyms": "Thousand Organisms",
        "definition": "A unit of measure of quantity of organisms expressed in 10 to the third power of organisms."
      },
      {
        "code": "C71190",
        "term": "10^3 organisms/g",
        "synonyms": "Thousand Organisms per Gram, Thousand Organisms/g",
        "definition": "A unit of measure of organism content expressed in 10 to the third power of organisms per unit of mass equal to one gram."
      },
      {
        "code": "C71195",
        "term": "10^3 organisms/mL",
        "synonyms": "Thousand Organisms per Milliliter, Thousand Organisms/mL",
        "definition": "A unit of measure of organism concentration expressed in 10 to the third power of organisms per unit of volume equal to one milliliter."
      },
      {
        "code": "C98790",
        "term": "10^3 RNA copies/mL",
        "synonyms": null,
        "definition": "A unit of measurement equal to 10 to the third power of the number of ribonucleic acid (RNA) copies per unit of volume equal to one milliliter."
      },
      {
        "code": "C187975",
        "term": "10^3 Therapeutic Cells",
        "synonyms": null,
        "definition": "A dosing unit for the number of therapeutic cells administered, expressed as 10 to the third power."
      },
      {
        "code": "C98789",
        "term": "10^3/hpf",
        "synonyms": null,
        "definition": "A unit of measurement equal to 10 to the third power of the number of entities per unit of area equal to one high powered field."
      },
      {
        "code": "C105519",
        "term": "10^3/L",
        "synonyms": "/mL, 1/mL",
        "definition": "A unit of measurement equal to 10 to the third power of entities per unit of volume equal to one liter."
      },
      {
        "code": "C158293",
        "term": "10^4 CFU",
        "synonyms": "Ten Thousand CFU, Ten Thousand Colony Forming Units",
        "definition": "A unit of measurement of colony forming cells or microorganisms equal to 10 to the fourth power colony forming units."
      },
      {
        "code": "C166095",
        "term": "10^4 CFU/mL",
        "synonyms": "Ten Thousand CFU/mL, Ten Thousand Colony Forming Units per Milliliter",
        "definition": "A unit of measurement of colony forming cells or microorganisms in a unit volume of substance of interest defined as the number of 10 to the fourth power colony forming units in one milliliter of substance."
      },
      {
        "code": "C198375",
        "term": "10^4 copies/mL",
        "synonyms": "Ten Thousand Copies per Milliliter",
        "definition": "The unit of concentration expressed as the number of 10 to the fourth power copies in unit volume equal to one milliliter. (NCI)"
      },
      {
        "code": "C198376",
        "term": "10^4 IU/mL",
        "synonyms": "Ten Thousand International Units per Milliliter",
        "definition": "A unit of measurement equal to 10 to the fourth power of the number of international units of an entity per unit of volume equal to one milliliter."
      },
      {
        "code": "C98787",
        "term": "10^4/hpf",
        "synonyms": null,
        "definition": "A unit of measurement equal to 10 to the fourth power of the number of entities per unit of area equal to one high powered field."
      },
      {
        "code": "C73771",
        "term": "10^4/L",
        "synonyms": null,
        "definition": "A unit of measurement equal to 10 to the fourth power of entities per unit of volume equal to one liter."
      },
      {
        "code": "C198377",
        "term": "10^5 CFU",
        "synonyms": "Hundred Thousand CFU, Hundred Thousand Colony Forming Units",
        "definition": "A unit of measurement of colony forming cells or microorganisms equal to 10 to the fifth power colony forming units. (NCI)"
      },
      {
        "code": "C181551",
        "term": "10^5 CFU/mL",
        "synonyms": "Hundred Thousand CFU/mL, Hundred Thousand Colony Forming Units per Milliliter",
        "definition": "A unit of measurement of colony forming cells or microorganisms in a unit volume of substance of interest defined as the number of 10 to the fifth power colony forming units in one milliliter of substance."
      },
      {
        "code": "C198378",
        "term": "10^5 copies/mL",
        "synonyms": "Hundred Thousand copies per Milliliter",
        "definition": "The unit of concentration expressed as the number of 10 to the fifth power copies in unit volume equal to one milliliter. (NCI)"
      },
      {
        "code": "C198379",
        "term": "10^5 IU/mL",
        "synonyms": "Hundred Thousand International Units",
        "definition": "A unit of measurement equal to 10 to the fifth power of the number of international units of an entity per unit of volume equal to one milliliter. (NCI)"
      },
      {
        "code": "C187971",
        "term": "10^5 Therapeutic Cells",
        "synonyms": null,
        "definition": "A dosing unit for the number of therapeutic cells administered, expressed as 10 to the fifth power."
      },
      {
        "code": "C98743",
        "term": "10^5/hpf",
        "synonyms": null,
        "definition": "A unit of measurement equal to 10 to the fifth power of the number of entities per unit of area equal to one high powered field."
      },
      {
        "code": "C184715",
        "term": "10^5/kg",
        "synonyms": "10^2/g, 10^5/kg",
        "definition": "A unit of measurement equal to 10 to the fifth power of the number of entities per unit of mass equal to one kilogram."
      },
      {
        "code": "C105490",
        "term": "10^5/L",
        "synonyms": "10^2/mL",
        "definition": "A unit of measurement equal to 10 to the fifth power of entities per unit of volume equal to one liter."
      },
      {
        "code": "C68896",
        "term": "10^6 CFU",
        "synonyms": "Million CFU, Million Colony Forming Units",
        "definition": "A unit of measurement of colony forming cells or microorganisms equal to 10 to the sixth power colony forming units."
      },
      {
        "code": "C68900",
        "term": "10^6 CFU/g",
        "synonyms": "Million CFU/g, Million Colony Forming Units per Gram",
        "definition": "A unit of measurement of colony forming cells or microorganisms in a unit mass of substance of interest defined as the number of 10 to the sixth power colony forming units in one gram of substance."
      },
      {
        "code": "C68904",
        "term": "10^6 CFU/mL",
        "synonyms": "Million CFU/mL, Million Colony Forming Units per Milliliter",
        "definition": "A unit of measurement of colony forming cells or microorganisms in a unit volume of substance of interest defined as the number of 10 to the sixth power colony forming units in one milliliter of substance."
      },
      {
        "code": "C100898",
        "term": "10^6 copies/mL",
        "synonyms": null,
        "definition": "The unit of concentration expressed as the number of 10 to the sixth power copies in unit volume equal to one milliliter. (NCI)"
      },
      {
        "code": "C98756",
        "term": "10^6 DNA copies/mL",
        "synonyms": null,
        "definition": "A unit of measurement equal to 10 to the sixth power of the number of deoxyribonucleic acid (DNA) copies per unit of volume equal to one milliliter."
      },
      {
        "code": "C67335",
        "term": "10^6 IU",
        "synonyms": "Million International Units, Million IU",
        "definition": "A unit of biological activity equal to 10 to the sixth power international units."
      },
      {
        "code": "C98757",
        "term": "10^6 IU/mL",
        "synonyms": null,
        "definition": "A unit of measurement equal to 10 to the sixth power of the number of international units of an entity per unit of volume equal to one milliliter."
      },
      {
        "code": "C71188",
        "term": "10^6 organisms",
        "synonyms": "Million Organisms",
        "definition": "A unit of measure of quantity of organisms expressed in 10 to the sixth power of organisms."
      },
      {
        "code": "C71191",
        "term": "10^6 organisms/g",
        "synonyms": "Million Organisms per Gram, Million Organisms/g",
        "definition": "A unit of measure of organism content expressed in 10 to the sixth power of organisms per unit of mass equal to one gram."
      },
      {
        "code": "C71193",
        "term": "10^6 organisms/mg",
        "synonyms": "Million Organisms per Milligram, Million Organisms/mg",
        "definition": "A unit of measure of organism content expressed in 10 to the sixth power of organisms per unit of mass equal to one milligram."
      },
      {
        "code": "C71196",
        "term": "10^6 organisms/mL",
        "synonyms": "Million Organisms per Milliliter, Million Organisms/mL",
        "definition": "A unit of measure of organism concentration expressed in 10 to the sixth power of organisms per unit of volume equal to one milliliter."
      },
      {
        "code": "C67268",
        "term": "10^6 PFU",
        "synonyms": "One Million PFU, One Million Plaque Forming Units",
        "definition": "A unit of measurement of infectious entities with numbers equal to 10 to the sixth power plaque forming units."
      },
      {
        "code": "C98760",
        "term": "10^6 RNA copies/mL",
        "synonyms": null,
        "definition": "A unit of measurement equal to 10 to the sixth power of the number of ribonucleic acid (RNA) copies per unit of volume equal to one milliliter."
      },
      {
        "code": "C150415",
        "term": "10^6 TCID 50/dose",
        "synonyms": "10^6 50 Percent Tissue Culture Infective Dose per Dose",
        "definition": "A potency unit equal to the potency at which one dose of preparation contains one million (10^6) 50 percent tissue culture infective doses."
      },
      {
        "code": "C187973",
        "term": "10^6 Therapeutic Cells",
        "synonyms": null,
        "definition": "A dosing unit for the number of therapeutic cells administered, expressed as 10 to the sixth power."
      },
      {
        "code": "C67310",
        "term": "10^6 U",
        "synonyms": "Million U, Million Units",
        "definition": "A unit of measure equal to 10 to the sixth power of arbitrary units."
      },
      {
        "code": "C130189",
        "term": "10^6/Ejaculate U",
        "synonyms": null,
        "definition": "A unit of measurement equal to 10 to the sixth power of entities per unit equal to one ejaculation."
      },
      {
        "code": "C98758",
        "term": "10^6/g",
        "synonyms": "/ug, 1/ug, 10^3/mg, 10^9/kg",
        "definition": "A unit of measurement equal to 10 to the sixth power of the number of entities per unit of mass equal to one gram."
      },
      {
        "code": "C98759",
        "term": "10^6/hpf",
        "synonyms": null,
        "definition": "A unit of measurement equal to 10 to the sixth power of the number of entities per unit of area equal to one high powered field."
      },
      {
        "code": "C198380",
        "term": "10^6/kg",
        "synonyms": "10^3/g",
        "definition": "A unit of measurement equal to 10 to the sixth power of the number of entities per unit of mass equal to one kilogram."
      },
      {
        "code": "C67452",
        "term": "10^6/L",
        "synonyms": "/mm3, /uL, 1/mm3, 1/uL, 10^3/mL, M/L, Mega/L",
        "definition": "A unit of measurement equal to 10 to the sixth power of the number of entities per unit of volume equal to one liter."
      },
      {
        "code": "C158294",
        "term": "10^7 CFU",
        "synonyms": "Ten Million CFU, Ten Million Colony Forming Units",
        "definition": "A unit of measurement of colony forming cells or microorganisms equal to 10 to the seventh power colony forming units."
      },
      {
        "code": "C166096",
        "term": "10^7 CFU/mL",
        "synonyms": "Ten Million CFU/mL, Ten Million Colony Forming Units per Milliliter",
        "definition": "A unit of measurement of colony forming cells or microorganisms in a unit volume of substance of interest defined as the number of 10 to the seventh power colony forming units in one milliliter of substance."
      },
      {
        "code": "C198381",
        "term": "10^7 copies/mL",
        "synonyms": "Ten Million copies per Milliliter",
        "definition": "The unit of concentration expressed as the number of 10 to the seventh power copies in unit volume equal to one milliliter. (NCI)"
      },
      {
        "code": "C198382",
        "term": "10^7 IU/mL",
        "synonyms": "Ten Million International Units per Milliliter",
        "definition": "A unit of measurement equal to 10 to the seventh power of the number of international units of an entity per unit of volume equal to one milliliter. (NCI)"
      },
      {
        "code": "C67265",
        "term": "10^7 PFU",
        "synonyms": "Ten Million PFU, Ten Million Plaque Forming Units",
        "definition": "A unit of measurement of plaque forming cells or microorganisms with numbers equal to 10 to the seventh power plaque forming units."
      },
      {
        "code": "C150416",
        "term": "10^7 TCID 50/dose",
        "synonyms": "10^7 50 Percent Tissue Culture Infective Dose per Dose",
        "definition": "A potency unit equal to the potency at which one dose of preparation contains ten million (10^7) 50 percent tissue culture infective doses."
      },
      {
        "code": "C184717",
        "term": "10^7/kg",
        "synonyms": "10/mg, 10^4/g",
        "definition": "A unit of measurement equal to 10 to the seventh power of the number of entities per unit of mass equal to one kilogram."
      },
      {
        "code": "C98786",
        "term": "10^7/L",
        "synonyms": "10^6/dL",
        "definition": "A unit of measurement equal to 10 to the seventh power of the number of entities per unit of volume equal to one liter."
      },
      {
        "code": "C198383",
        "term": "10^8 CFU",
        "synonyms": "Hundred Million CFU, Hundred Million Colony Forming Units",
        "definition": "A unit of measurement of colony forming cells or microorganisms equal to 10 to the eighth power colony forming units. (NCI)"
      },
      {
        "code": "C198384",
        "term": "10^8 copies/mL",
        "synonyms": "One Hundred Million Copies per Milliliter",
        "definition": "The unit of concentration expressed as the number of 10 to the eight power copies in unit volume equal to one milliliter. (NCI)"
      },
      {
        "code": "C156119",
        "term": "10^8 IU",
        "synonyms": "One Hundred Million International Units, One Hundred Million IU",
        "definition": "A unit of biological activity equal to 10 to the eighth power international units."
      },
      {
        "code": "C198385",
        "term": "10^8 IU/mL",
        "synonyms": "One Hundred Million International Units per Milliliter",
        "definition": "A unit of measurement equal to 10 to the eight power of the number of international units of an entity per unit of volume equal to one milliliter. (NCI)"
      },
      {
        "code": "C67266",
        "term": "10^8 PFU",
        "synonyms": "Hundred Million PFU, Hundred Million Plaque Forming Units",
        "definition": "A unit of measurement of plaque forming cells or microorganisms with numbers equal to 10 to the eighth power of plaque forming units."
      },
      {
        "code": "C150417",
        "term": "10^8 TCID 50/dose",
        "synonyms": "10^8 50 Percent Tissue Culture Infective Dose per Dose",
        "definition": "A potency unit equal to the potency at which one dose of preparation contains one million (10^8) 50 percent tissue culture infective doses."
      },
      {
        "code": "C105489",
        "term": "10^8/L",
        "synonyms": "10^2/mm3, 10^2/uL, 10^5/mL",
        "definition": "A unit of measurement equal to 10 to the eighth power of entities per unit of volume equal to one liter."
      },
      {
        "code": "C68897",
        "term": "10^9 CFU",
        "synonyms": "Billion CFU, Billion Colony Forming Units",
        "definition": "A unit of measurement of colony forming cells or microorganisms equal to 10 to the ninth power colony forming units."
      },
      {
        "code": "C68901",
        "term": "10^9 CFU/g",
        "synonyms": "Billion CFU/g, Billion Colony Forming Units per Gram",
        "definition": "A unit of measurement of colony forming cells or microorganisms in a unit mass of substance of interest defined as the number of 10 to the ninth power colony forming units in one gram of substance."
      },
      {
        "code": "C68905",
        "term": "10^9 CFU/mL",
        "synonyms": "Billion CFU/mL, Billion Colony Forming Units per Milliliter",
        "definition": "A unit of measurement of colony forming cells or microorganisms in a unit volume of substance of interest defined as the number of 10 to the ninth power colony forming units in one milliliter of substance."
      },
      {
        "code": "C198386",
        "term": "10^9 copies/mL",
        "synonyms": "Billion Copies per Milliliter",
        "definition": "The unit of concentration expressed as the number of 10 to the ninth power copies in unit volume equal to one milliliter. (NCI)"
      },
      {
        "code": "C198387",
        "term": "10^9 IU/mL",
        "synonyms": "Billion International Units per Milliliter",
        "definition": "A unit of measurement equal to 10 to the ninth power of the number of international units of an entity per unit of volume equal to one milliliter. (NCI)"
      },
      {
        "code": "C71189",
        "term": "10^9 organisms",
        "synonyms": "Billion Organisms",
        "definition": "A unit of measure of quantity of organisms expressed in 10 to the ninth power of organisms."
      },
      {
        "code": "C71192",
        "term": "10^9 organisms/g",
        "synonyms": "Billion Organisms per Gram, Billion Organisms/g",
        "definition": "A unit of measure of organism content expressed in 10 to the ninth power of organisms per unit of mass equal to one gram."
      },
      {
        "code": "C71194",
        "term": "10^9 organisms/mg",
        "synonyms": "Billion Organisms per Milligram, Billion Organisms/mg",
        "definition": "A unit of measure of organism content expressed in 10 to the ninth power of organisms per unit of mass equal to one milligram."
      },
      {
        "code": "C71197",
        "term": "10^9 organisms/mL",
        "synonyms": "Billion Organisms per Milliliter, Billion Organisms/mL",
        "definition": "A unit of measure of organism concentration expressed in 10 to the ninth power of organisms per unit of volume equal to one milliliter."
      },
      {
        "code": "C67267",
        "term": "10^9 PFU",
        "synonyms": "Billion PFU, Billion Plaque Forming Units",
        "definition": "A unit of measurement of infectious entities with numbers equal to 10 to the ninth power of plaque forming units."
      },
      {
        "code": "C187998",
        "term": "10^9 Therapeutic Cells",
        "synonyms": null,
        "definition": "A dosing unit for the number of therapeutic cells administered, expressed as 10 to the ninth power."
      },
      {
        "code": "C163561",
        "term": "10^9/dose",
        "synonyms": null,
        "definition": "A dose calculation unit equal to 10 to the ninth power of the number of entities per single dose."
      },
      {
        "code": "C122200",
        "term": "10^9/g",
        "synonyms": "/ng, 1/ng, 10^12/kg, 10^3/ug, 10^6/mg",
        "definition": "A unit of measurement equal to 10 to the ninth power of the number of entities per unit of mass equal to one gram."
      },
      {
        "code": "C67255",
        "term": "10^9/L",
        "synonyms": "/nL, 1/nL, 10^3/mm3, 10^3/uL, 10^6/mL, G/L, GI/L, Giga per Liter, K/cumm, Thou/mcL",
        "definition": "A unit of measurement equal to 10 to the ninth power of the number of entities per unit of volume equal to one liter."
      },
      {
        "code": "C198388",
        "term": "10^9/uL",
        "synonyms": "10^12/mL, 10^15/L, 10^3/pL, 10^6/nL",
        "definition": "A unit of measurement equal to 10 to the ninth power of entities per unit of volume equal to one microliter."
      },
      {
        "code": "C73686",
        "term": "Absorbance U",
        "synonyms": "Absorbance Unit, AU",
        "definition": "A unit of optical density expressed as a logarithm of absorbance of light transmitted through a partially absorbing substance."
      },
      {
        "code": "C73687",
        "term": "Absorbance U/min",
        "synonyms": "Absorbance Unit per Minute, AU/min",
        "definition": "A unit of a speed of optical density change expressed as a logarithm of absorbance of light transmitted through a partially absorbing substance per minute. (NCI)"
      },
      {
        "code": "C126078",
        "term": "Absorbance U/mL",
        "synonyms": "AU/mL",
        "definition": "A unit of optical density expressed as a logarithm of absorbance of light transmitted through a partially absorbing substance per unit of volume equal to one milliliter."
      },
      {
        "code": "C122629",
        "term": "ACTUATION",
        "synonyms": "Act Dosing Unit, Actuation Dosing Unit",
        "definition": "A dosing measurement based on the actuation unit, which represents the number of times a dosing device is operated to administer a dose."
      },
      {
        "code": "C77534",
        "term": "AFU",
        "synonyms": "Arbitrary Fluorescence Unit",
        "definition": "Arbitrary unit(s) of fluorescent luminescence. (NCI)"
      },
      {
        "code": "C64553",
        "term": "ag",
        "synonyms": "Attogram",
        "definition": "A unit of mass equal to one quintillionth of a gram (1E-18 gram). (NCI)"
      },
      {
        "code": "C209702",
        "term": "AGGREGATION UNIT",
        "synonyms": "Arbitrary Aggregation Unit, AU",
        "definition": "An arbitrary unit of measure for particle aggregation which is derived from an increase in sample impedance as aggregation occurs."
      },
      {
        "code": "C70500",
        "term": "AgU/mL",
        "synonyms": "Antigen Unit per Milliliter",
        "definition": "A measure of an antigen potency defined as a number of antigen units per one milliliter of product.(NCI)"
      },
      {
        "code": "C163562",
        "term": "aMFI",
        "synonyms": "Arithmetic Mean Fluorescence Intensity Unit",
        "definition": "A unit of measure for the arithmetic mean fluorescence intensity."
      },
      {
        "code": "C68855",
        "term": "amol",
        "synonyms": "Attomole",
        "definition": "A unit of amount of substance equal to one quintillionth of a mole (1E-18 mole). (NCI)"
      },
      {
        "code": "C42536",
        "term": "amp",
        "synonyms": "Ampere",
        "definition": "A unit of electric current, named after the French physicist Andre Ampere. It is that constant current which, if maintained in two straight parallel conductors of infinite length and zero diameter separated by one meter in a vacuum, would produce between these conductors a force equal to 2(1E7) Newton per meter of length. This is dependent upon the definitions of the meter, kilogram, and second. One Ampere represents 6.24 x 1(E18) unit electric charge carriers, such as electrons, passing a specified fixed point in one second. (NCI)"
      },
      {
        "code": "C48473",
        "term": "AMPULE",
        "synonyms": "Ampule Dosing Unit",
        "definition": "A dosing measurement based on the ampule unit.(NCI)"
      },
      {
        "code": "C64559",
        "term": "amu",
        "synonyms": "Atomic Mass Unit",
        "definition": "A small unit of mass used to express atomic and molecular masses. (NCI)"
      },
      {
        "code": "C122201",
        "term": "Anson U",
        "synonyms": "AU",
        "definition": "A unit of enzyme concentration which is defined as the amount of enzyme that can digest urea-denatured hemoglobin at the same initial rate as one milliequivalent of tyrosine at standard conditions."
      },
      {
        "code": "C70497",
        "term": "anti-Xa IU",
        "synonyms": "Anti-Xa Activity International Unit",
        "definition": "A unit of unfractionated or low molecular weight heparin anticoagulation potency determined as the amount that neutralizes one unit of coagulation factor Xa preparation defined as an international biological standard by WHO (World Health Organization) First International Low Molecular Weight Heparin Reference Standard.(NCI)"
      },
      {
        "code": "C70498",
        "term": "anti-Xa IU/mL",
        "synonyms": "Anti-Xa Activity International Unit per Milliliter",
        "definition": "A specific anticoagulation activity of unfractionated or low molecular weight heparin on factor Xa, expressed as a number of international anti-Xa heparin units per one milliliter of plasma.(NCI)"
      },
      {
        "code": "C111129",
        "term": "Antibody Unit",
        "synonyms": "AU",
        "definition": "A unit of antibody concentration measured by comparison against a known concentration of antibodies in a standard reference specimen."
      },
      {
        "code": "C122202",
        "term": "APL U",
        "synonyms": "[APL'U], Immunoglobin A Phospholipid Units",
        "definition": "A unit for semiquantitative measurement of IgA autoantibodies to proteins associated with negatively charged phospholipids evaluated against an established reference standard."
      },
      {
        "code": "C117965",
        "term": "APL U/mL",
        "synonyms": "Immunoglobin A Phospholipid Units per Milliliter",
        "definition": "A unit for semiquantitative measurement of IgA autoantibodies to proteins associated with negatively charged phospholipids evaluated against an established reference standard, per unit of volume equal to one milliliter."
      },
      {
        "code": "C25397",
        "term": "APPLICATION",
        "synonyms": "Application Dosing Unit",
        "definition": "A dosing measurement based on the amount of substance applied."
      },
      {
        "code": "C161498",
        "term": "APS U",
        "synonyms": "Immunoglobin A Phosphatidylserine Units, Phosphatidylserine IgA Antibody Unit",
        "definition": "A unit for semiquantitative measurement of IgA autoantibodies to proteins associated with phosphatidylserine evaluated against an established reference standard. (NCI)"
      },
      {
        "code": "C186219",
        "term": "APS U/mL",
        "synonyms": "Immunoglobin A Phosphatidylserine Units/mL, Phosphatidylserine IgA Antibody Unit/mL",
        "definition": "Unit of measure of potency of allergenic product expressed as a number of immunoglobin A phosphatidylserine units per one milliliter of formulation."
      },
      {
        "code": "C75765",
        "term": "Arbitrary U",
        "synonyms": "AU",
        "definition": "A unit based on or subject to individual judgment, preference, or predetermined reference. (NCI)"
      },
      {
        "code": "C191361",
        "term": "Arbitrary U/mL",
        "synonyms": "AU/mL",
        "definition": "A unit based on or subject to individual judgment, preference, or predetermined reference per unit of volume equal to one milliliter."
      },
      {
        "code": "C189642",
        "term": "ARMOUR UNIT",
        "synonyms": "AU",
        "definition": "A unit of proteolytic activity for trypsin and/or chymotrypsin that, upon incubation with the hemoglobin substrate, will release a quantity of phenolic substances that react with Folin-Ciocalteu phenol reagent to produce a colorimetric change of equal intensity to that produced from the reaction of one microgram of tyrosine with Folin-Ciocalteu phenol reagent."
      },
      {
        "code": "C54711",
        "term": "atm",
        "synonyms": "Atmosphere",
        "definition": "A unit of pressure, equal to a barometer reading of 760 mm Hg. 1 atmosphere is 101325 Pascals and 1.01325 bar. This unit of pressure is roughly equal to the average atmospheric pressure at sea level on the earth.(NCI)"
      },
      {
        "code": "C70504",
        "term": "AU/mL",
        "synonyms": "Allergy Unit per Milliliter, kAU/L, kUA/L, UA/mL",
        "definition": "Unit of measure of potency of allergenic product expressed as a number of allergy units per one milliliter of formulation.(NCI)"
      },
      {
        "code": "C48474",
        "term": "BAG",
        "synonyms": "Bag Dosing Unit",
        "definition": "A dosing measurement based on the bag unit.(NCI)"
      },
      {
        "code": "C48475",
        "term": "BAR",
        "synonyms": "Bar Dosing Unit",
        "definition": "A dosing measurement based on the bar unit.(NCI)"
      },
      {
        "code": "C70505",
        "term": "BAU",
        "synonyms": "BAU, Bioequivalent Allergy Unit",
        "definition": "A unit used for standardization of an allergenic product based on evaluation of product potency against reference standard in combined in vivo (skin test) and in vitro (IgE-based ELISA) testing.(NCI)"
      },
      {
        "code": "C116235",
        "term": "BAU/mL",
        "synonyms": "BAU/mL, Bioequivalent Allergy Unit per Milliliter",
        "definition": "Unit of measure of potency of allergenic product expressed as a number of bioequivalent allergy units per one milliliter of formulation."
      },
      {
        "code": "C116231",
        "term": "BE/mL",
        "synonyms": "Biological Unit per Milliliter",
        "definition": "Unit of measure of potency of allergenic product expressed as a number of biological units per one milliliter of formulation."
      },
      {
        "code": "C129002",
        "term": "BEAM BREAKS",
        "synonyms": null,
        "definition": "The unit of measure for the number of times in which light paths are interrupted by movement."
      },
      {
        "code": "C49673",
        "term": "beats/min",
        "synonyms": "Beats per Minute, BPM, bpm",
        "definition": "The number of heartbeats measured per minute time. (NCI)"
      },
      {
        "code": "C71200",
        "term": "bel",
        "synonyms": "Bel",
        "definition": "A logarithmic ratio unit (base-10 logarithms) used to express relative magnitude of a physical quantity (usually power or intensity) in comparison with a specified or implied reference level. Particularly, Bel is used as a unit of relative sound intensity. In the latter context it is equal to ten decibels or to approximately 1.151293 nepers.(NCI)"
      },
      {
        "code": "C189120",
        "term": "Binding Ab Unit",
        "synonyms": "BAU, Binding Antibody Unit",
        "definition": "A unit of measure defined by WHO used for the comparison of antibody binding assays that detect the same class of immunoglobulins with the same specificity."
      },
      {
        "code": "C189647",
        "term": "Binding Ab Unit/mL",
        "synonyms": "BAU/mL, Binding Antibody Unit per Milliliter",
        "definition": "A unit of concentration expressed as the number of binding antibody units per one milliliter."
      },
      {
        "code": "C111139",
        "term": "BISCUIT",
        "synonyms": "Biscuit Dosing Unit",
        "definition": "A measurement based on the biscuit unit."
      },
      {
        "code": "C111140",
        "term": "BLOCKS",
        "synonyms": null,
        "definition": "A unit of measure to quantify the number of rectangular areas in a city surrounded by streets."
      },
      {
        "code": "C48476",
        "term": "BOLUS",
        "synonyms": "Bolus Dosing Unit",
        "definition": "A dosing measurement based on the bolus unit.(NCI)"
      },
      {
        "code": "C48477",
        "term": "BOTTLE",
        "synonyms": "Bottle Dosing Unit",
        "definition": "A dosing measurement based on the bottle unit.(NCI)"
      },
      {
        "code": "C151970",
        "term": "BOWL",
        "synonyms": "Bowl Dosing Unit",
        "definition": "A dosing measurement based on the bowl unit."
      },
      {
        "code": "C48478",
        "term": "BOX",
        "synonyms": "Box Dosing Unit",
        "definition": "A dosing measurement based on the box unit.(NCI)"
      },
      {
        "code": "C132477",
        "term": "BP",
        "synonyms": "BASE PAIRS",
        "definition": "A number representing the paired nucleotides in a DNA or RNA sequence."
      },
      {
        "code": "C42562",
        "term": "Bq",
        "synonyms": "Becquerel",
        "definition": "A unit of activity of a radionuclide, equal to one nuclear disintegration or other nuclear transition from a particular energy state occurring in an amount of a radionuclide during one second-long time interval.(NCI)"
      },
      {
        "code": "C70522",
        "term": "Bq/g",
        "synonyms": "Becquerel per Gram",
        "definition": "A unit of specific radioactivity (massic activity) equal to activity of one Becquerel of the sample with total mass of one gram.(NCI)"
      },
      {
        "code": "C70521",
        "term": "Bq/kg",
        "synonyms": "Becquerel per Kilogram",
        "definition": "A unit of specific radioactivity (massic activity) equal to activity of one Becquerel of the sample with total mass of one kilogram.(NCI)"
      },
      {
        "code": "C71165",
        "term": "Bq/L",
        "synonyms": "Becquerel per Liter",
        "definition": "A unit of volumetric radioactivity concentration defined as a concentration of a radionuclide with an activity equal to one Becquerel per unit volume equal to one liter.(NCI)"
      },
      {
        "code": "C70524",
        "term": "Bq/mg",
        "synonyms": "Becquerel per Milligram, kBq/g, Kilobecquerel per Gram",
        "definition": "A unit of specific radioactivity (massic activity) equal to activity of one Becquerel of the sample with total mass of one milligram.(NCI)"
      },
      {
        "code": "C71167",
        "term": "Bq/mL",
        "synonyms": "Becquerel per Milliliter, kBq/L, Kilobecquerel per Liter",
        "definition": "A unit of volumetric radioactivity concentration defined as a concentration of a radionuclide with an activity equal to one Becquerel per unit volume equal to one milliliter or one kilobecquerel per liter.(NCI)"
      },
      {
        "code": "C70523",
        "term": "Bq/ug",
        "synonyms": "Becquerel per Microgram, Bq/mcg, Bq/ug, kBq/mg, Kilobecquerel per Milligram, MBq/g, Megabecquerel per Gram",
        "definition": "A unit of specific radioactivity (massic activity) equal to activity of one Becquerel of the sample with total mass of one microgram, or equal to activity of one kilobecquerel of the sample with total mass of one milligram."
      },
      {
        "code": "C71166",
        "term": "Bq/uL",
        "synonyms": "Becquerel per Microliter, kBq/mL, Kilobecquerel per Milliliter, MBq/L, Megabecquerel per Liter",
        "definition": "A unit of volumetric radioactivity concentration defined as a concentration of a radionuclide with an activity equal to one Becquerel per unit volume equal to one millionth of a liter.(NCI)"
      },
      {
        "code": "C176382",
        "term": "breaths/30 s",
        "synonyms": "Breaths per 30 Seconds, breaths/30s",
        "definition": "The number of breaths (inhalation and exhalation) taken within a period of time equal to thirty seconds."
      },
      {
        "code": "C49674",
        "term": "breaths/min",
        "synonyms": "Breaths per Minute",
        "definition": "The number of breaths (inhalation and exhalation) taken per minute time. (NCI)"
      },
      {
        "code": "C117966",
        "term": "BU",
        "synonyms": "Bethesda Unit",
        "definition": "A unit of measurement for blood coagulation inhibitor activity, expressed in the amount of an inhibitor neutralizing 50% of a coagulant during the incubation period."
      },
      {
        "code": "C117967",
        "term": "BU/mL",
        "synonyms": "Bethesda Unit per Milliliter",
        "definition": "A unit of measurement for blood coagulation inhibitor activity, expressed as a Bethesda Unit per unit of volume equal to one milliliter. (NCI)"
      },
      {
        "code": "C42559",
        "term": "C",
        "synonyms": "Degree Celsius",
        "definition": "A unit of temperature of the temperature scale designed so that the freezing point of water is 0 degrees and the boiling point is 100 degrees at standard atmospheric pressure. The current official definition of the Celsius sets 0.01 C to be at the triple point of water and a degree to be 1/273.16 of the difference in temperature between the triple point of water and absolute zero. One degree Celsius represents the same temperature difference as one Kelvin. (NCI)"
      },
      {
        "code": "C67270",
        "term": "CAE Unit",
        "synonyms": "Complement Activity Enzyme Unit",
        "definition": "A unit of measurement for enzymatic activity of plasma and membrane-bound proteins that comprise a complement system and their split products."
      },
      {
        "code": "C67193",
        "term": "cal",
        "synonyms": "Calorie",
        "definition": "A measurement of nutritional energy. The quantity of thermal energy required to raise one gram of water one degree Centigrade under standard conditions. 1 calorie equals 4.186 joules. (NCI)"
      },
      {
        "code": "C48479",
        "term": "CAN",
        "synonyms": "Can Dosing Unit",
        "definition": "A dosing measurement based on the can unit.(NCI)"
      },
      {
        "code": "C102405",
        "term": "CAPFUL",
        "synonyms": "Capful Dosing Unit",
        "definition": "A unit of measure equal to the amount that the cap on the bottle can contain."
      },
      {
        "code": "C64696",
        "term": "CAPLET",
        "synonyms": "Caplet Dosing Unit",
        "definition": "A dosing measurement based on the caplet unit."
      },
      {
        "code": "C48480",
        "term": "CAPSULE",
        "synonyms": "cap, Capsule Dosing Unit",
        "definition": "A dosing measurement based on the capsule unit.(NCI)"
      },
      {
        "code": "C48481",
        "term": "CARTRIDGE",
        "synonyms": "Cartridge Dosing Unit",
        "definition": "A dosing measurement based on the cartridge unit.(NCI)"
      },
      {
        "code": "C70535",
        "term": "CCID 50/dose",
        "synonyms": "50 Percent Cell Culture Infective Dose per Dose",
        "definition": "A potency unit equal to the potency at which one dose of preparation contains one 50 percent cell culture infective dose.(NCI)"
      },
      {
        "code": "C120845",
        "term": "CCID 50/mL",
        "synonyms": "50 Percent Cell Culture Infective Dose per Milliliter",
        "definition": "A potency unit equal to the potency at which one milliliter of preparation contains one 50 percent cell culture infective dose. (NCI)"
      },
      {
        "code": "C42538",
        "term": "cd",
        "synonyms": "Candela",
        "definition": "The candela is the basic unit of luminous intensity. It is the luminous intensity in a given direction of a small monochromatic light source at 540 terahertz emitting 1/683 watt per steradian in that direction. This is dependent upon the definitions of the meter, kilogram, and second.(NCI)"
      },
      {
        "code": "C122203",
        "term": "cd*s/m2",
        "synonyms": null,
        "definition": "A unit of luminous intensity expressed as one candela in one second of light emittance per square meter of area."
      },
      {
        "code": "C122204",
        "term": "cd/m2",
        "synonyms": null,
        "definition": "A unit of luminous intensity expressed as one candela per square meter of area."
      },
      {
        "code": "C68898",
        "term": "CFU/g",
        "synonyms": "Colony Forming Unit per Gram",
        "definition": "A unit of measurement of colony forming cells or microorganisms in a unit mass of substance of interest defined as the number of colony forming units in one gram of substance."
      },
      {
        "code": "C68902",
        "term": "CFU/mL",
        "synonyms": "Colony Forming Unit per Milliliter",
        "definition": "A unit of measurement of colony forming cells or microorganisms in a unit volume of substance of interest defined as the number of colony forming units in one milliliter of substance."
      },
      {
        "code": "C64554",
        "term": "cg",
        "synonyms": "Centigram",
        "definition": "A unit of mass equal to one hundredth of a gram.(NCI)"
      },
      {
        "code": "C128269",
        "term": "CGE",
        "synonyms": "Cobalt Gray Equivalent",
        "definition": "A unit of relative biological effectiveness of protons equivalent to cobalt-60 gamma rays."
      },
      {
        "code": "C64693",
        "term": "cGy",
        "synonyms": "Centigray",
        "definition": "The metric unit of absorbed radiation dose equal to the absorption of one hundredth of joule of radiation energy per kilogram of matter."
      },
      {
        "code": "C48466",
        "term": "Ci",
        "synonyms": "Curie",
        "definition": "A unit of radioactivity defined as 3.7 E10 atomic disintegrations or other nuclear transformations per second. One Curie is equal to 37 gigabecquerels.(NCI)"
      },
      {
        "code": "C70528",
        "term": "Ci/g",
        "synonyms": "Curie per Gram, mCi/mg, Microcurie per Microgram, Millicurie per Milligram, uCi/ug",
        "definition": "A unit of specific radioactivity (massic activity) equal to activity of one Curie of the sample with total mass of one gram.(NCI)"
      },
      {
        "code": "C70529",
        "term": "Ci/kg",
        "synonyms": "Curie per Kilogram, mCi/g, Microcurie per Milligram, Millicurie per Gram, uCi/mg",
        "definition": "A unit of specific radioactivity (massic activity) equal to activity of one Curie of the sample with total mass of one kilogram.(NCI)"
      },
      {
        "code": "C71170",
        "term": "Ci/L",
        "synonyms": "Curie per Liter, Microcurie per Microliter, uCi/uL",
        "definition": "A unit of volumetric radioactivity concentration defined as a concentration of a radionuclide with an activity equal to one Curie per unit volume equal to one liter.(NCI)"
      },
      {
        "code": "C70531",
        "term": "Ci/mg",
        "synonyms": "Curie per Milligram, mCi/ug, Millicurie per Microgram",
        "definition": "A unit of specific radioactivity (massic activity) equal to activity of one Curie of the sample with total mass of one milligram.(NCI)"
      },
      {
        "code": "C71172",
        "term": "Ci/mL",
        "synonyms": "Curie per Milliliter",
        "definition": "A unit of volumetric radioactivity concentration defined as a concentration of a radionuclide with an activity equal to one Curie per unit volume equal to one milliliter.(NCI)"
      },
      {
        "code": "C209703",
        "term": "Ci/mmol",
        "synonyms": "mCi/umol, uCi/nmol",
        "definition": "A unit of radioactivity concentration defined as a concentration of a radionuclide with an activity equal to one Curie in one millimole of substance."
      },
      {
        "code": "C70530",
        "term": "Ci/ug",
        "synonyms": "Ci/mcg, Curie per Microgram",
        "definition": "A unit of specific radioactivity (massic activity) equal to activity of one Curie of the sample with total mass of one microgram.(NCI)"
      },
      {
        "code": "C71171",
        "term": "Ci/uL",
        "synonyms": "Ci/mcL, Curie per Microliter",
        "definition": "A unit of volumetric radioactivity concentration defined as a concentration of a radionuclide with an activity equal to one Curie per unit volume equal to one millionth of a liter.(NCI)"
      },
      {
        "code": "C116244",
        "term": "CIGAR",
        "synonyms": "Cigar Dosing Unit",
        "definition": "A dosing measurement based on the cigar unit."
      },
      {
        "code": "C116245",
        "term": "CIGARETTE",
        "synonyms": "Cigarette Dosing Unit",
        "definition": "A dosing measurement based on the cigarette unit."
      },
      {
        "code": "C69087",
        "term": "cL",
        "synonyms": "Centiliter",
        "definition": "The unit of volume equal to one hundredth of a liter or 10 milliliters or 10 cubic centimeters or 0.6102 cubic inch."
      },
      {
        "code": "C91060",
        "term": "cm H2O",
        "synonyms": null,
        "definition": "A unit of pressure defined by a column of water with a height of one centimeter, frequently used to measure central venous pressure, intracranial pressure, and for pressures during mechanical ventilation."
      },
      {
        "code": "C49668",
        "term": "cm",
        "synonyms": "Centimeter",
        "definition": "A basic unit of length equal to one hundredth of a meter or approximately 0.393700787 inch."
      },
      {
        "code": "C105481",
        "term": "cm/min",
        "synonyms": "Centimeters per Minute",
        "definition": "A unit of both speed (scalar) and velocity (vector), defined as the distance of one centimeter travelled per unit time equal to one minute. (NCI)"
      },
      {
        "code": "C102406",
        "term": "cm/s",
        "synonyms": "cm/sec",
        "definition": "A unit of both speed (scalar) and velocity (vector), defined as the distance of one centimeter travelled per unit time equal to one second. (NCI)"
      },
      {
        "code": "C48460",
        "term": "cm2",
        "synonyms": "Square Centimeter",
        "definition": "A unit of area measurement equal to a square measuring one centimeter on each side. One square centimeter is equal to 1E-4 square meter. (NCI)"
      },
      {
        "code": "C204704",
        "term": "cm2/s",
        "synonyms": null,
        "definition": "A SI derived metric unit of kinematic viscosity expressed as centimeters squared per second."
      },
      {
        "code": "C135518",
        "term": "cmH2O*s/mL",
        "synonyms": null,
        "definition": "A unit of pressure defined as centimeters of water times seconds per unit of volume equal to one milliliter."
      },
      {
        "code": "C135519",
        "term": "cmH2O*s2/mL",
        "synonyms": null,
        "definition": "A unit of pressure defined as centimeters of water times seconds squared per unit of volume equal to one milliliter."
      },
      {
        "code": "C135520",
        "term": "cmH2O/mL",
        "synonyms": null,
        "definition": "A unit of pressure defined as centimeters of water per unit of volume equal to one milliliter."
      },
      {
        "code": "C201487",
        "term": "cmH2O/mL/s",
        "synonyms": null,
        "definition": "A unit of pressure defined as centimeters of water per unit of volume equal to one milliliter per unit of time equal to one second."
      },
      {
        "code": "C147129",
        "term": "cmHg",
        "synonyms": "Centimeter of Mercury",
        "definition": "A unit of pressure equal to 0.001316 atmosphere and equal to the pressure indicated by one centimeter rise of mercury in a barometer at the Earth's surface."
      },
      {
        "code": "C68687",
        "term": "cmol",
        "synonyms": "Centimole",
        "definition": "A unit of amount of substance equal to one hundredth of a mole (1E-2 mole). (NCI)"
      },
      {
        "code": "C68886",
        "term": "cmol/L",
        "synonyms": "Millimoles per Deciliter, mmol/dL",
        "definition": "A unit of concentration (molarity unit) equal to one centimole of solute in one liter of solution. (NCI)"
      },
      {
        "code": "C48483",
        "term": "COAT",
        "synonyms": "Coat Dosing Unit",
        "definition": "A dosing measurement based on the coat unit.(NCI)"
      },
      {
        "code": "C48484",
        "term": "CONTAINER",
        "synonyms": "Container Dosing Unit",
        "definition": "A dosing measurement based on the container unit.(NCI)"
      },
      {
        "code": "C198389",
        "term": "copies/cell",
        "synonyms": null,
        "definition": "A unit of concentration expressed as a number of copies per cell. (NCI)"
      },
      {
        "code": "C100900",
        "term": "copies/mL",
        "synonyms": null,
        "definition": "A unit of concentration expressed as a number of copies per unit volume equal to one milliliter."
      },
      {
        "code": "C126079",
        "term": "copies/ug",
        "synonyms": null,
        "definition": "A unit of concentration expressed as a number of copies per unit volume equal to one microgram."
      },
      {
        "code": "C116237",
        "term": "copies/uL",
        "synonyms": null,
        "definition": "A unit of concentration expressed as a number of copies per unit volume equal to one microliter."
      },
      {
        "code": "C42550",
        "term": "Coulomb",
        "synonyms": "Coulomb",
        "definition": "A unit of quantity of electricity, equal to the quantity of charge transferred in one second across a conductor in which there is a constant current of one Ampere.(NCI)"
      },
      {
        "code": "C69092",
        "term": "cP",
        "synonyms": "Centipoise, Millipascal Second, s*mPa",
        "definition": "A unit of dynamic viscosity equal to one hundredth of a poise."
      },
      {
        "code": "C73688",
        "term": "cpm",
        "synonyms": "Counts per Minute",
        "definition": "A unit of frequency expressed as the detection rate of ionization events per minute."
      },
      {
        "code": "C105482",
        "term": "cs",
        "synonyms": "10^-2 sec, Centisecond, csec",
        "definition": "A unit of time equal to one hundredth of a second (1E-2 seconds). (NCI)"
      },
      {
        "code": "C204703",
        "term": "Cu",
        "synonyms": "Coresta Unit",
        "definition": "A unit of measure for air permeability defined as the volumetric flow rate of air (cm3 min-1) passing through a 1 cm2 sample of substrate at an applied pressure difference of 1 kPa."
      },
      {
        "code": "C172604",
        "term": "cup eq",
        "synonyms": "Cup Equivalent, cup-eq",
        "definition": "A unit of relative amount of a substance equal to one cup."
      },
      {
        "code": "C54703",
        "term": "CUP",
        "synonyms": "Cup Dosing Unit",
        "definition": "A dosing measurement based on the cup unit.(NCI)"
      },
      {
        "code": "C204702",
        "term": "CUTS/in",
        "synonyms": "Cuts Per Inch",
        "definition": "A unit of measure equal to the number of physical cuts made per one inch of a tobacco leaf."
      },
      {
        "code": "C114242",
        "term": "cy/cm",
        "synonyms": "cpcm, Grating Cycles per Centimeter",
        "definition": "A unit of measure for the number of repeating vertical or horizontal bars per unit of length equal to one centimeter on a visual acuity testing card."
      },
      {
        "code": "C71176",
        "term": "cycle/min",
        "synonyms": "Cycle per Minute",
        "definition": "A unit of frequency equal to the frequency at which one complete execution of a periodically repeated phenomenon, alternation, event, or sequence of events occurs per unit of time equal to one minute.(NCI)"
      },
      {
        "code": "C48489",
        "term": "CYLINDER",
        "synonyms": "Cylinder Dosing Unit",
        "definition": "A dosing measurement based on the cylinder unit.(NCI)"
      },
      {
        "code": "C70501",
        "term": "DAgU",
        "synonyms": "D Antigen Unit",
        "definition": "A unit of potency of poliovirus vaccine used for poliomyelitis prevention. The unit is poliovirus type-specific.(NCI)"
      },
      {
        "code": "C70502",
        "term": "DAgU/mL",
        "synonyms": "D Antigen Unit per Milliliter",
        "definition": "A unit of potency of poliovirus vaccine expressed as a number of D antigen units per one milliliter of vaccine formulation.(NCI)"
      },
      {
        "code": "C105483",
        "term": "damol/L",
        "synonyms": "Decamole per Liter, mol/dL, Moles per Deciliter",
        "definition": "A unit of concentration (molarity unit) equal to one decamole of solute in one liter of solution. (NCI)"
      },
      {
        "code": "C191360",
        "term": "daPa",
        "synonyms": "Decapascal",
        "definition": "A SI derived unit of pressure equivalent to ten pascals."
      },
      {
        "code": "C198211",
        "term": "day*ng/mL/(mg/kg)",
        "synonyms": null,
        "definition": "Days times nanograms per milliliter (area under the curve), divided by milligrams per kilogram (dose normalized by body weight)."
      },
      {
        "code": "C25301",
        "term": "DAYS",
        "synonyms": null,
        "definition": "A unit of measurement of time equal to 24 hours."
      },
      {
        "code": "C170634",
        "term": "days/month",
        "synonyms": null,
        "definition": "A unit of measurement equal to the number of days within a period of time equal to one month."
      },
      {
        "code": "C170633",
        "term": "days/wk",
        "synonyms": "days/week",
        "definition": "A unit of measurement equal to the number of days within a period of time equal to one week."
      },
      {
        "code": "C102407",
        "term": "dB",
        "synonyms": "Decibel",
        "definition": "A unit of measure representing the intensity of an electrical signal or sound which is equal to ten times the logarithm of the ratio of two signals."
      },
      {
        "code": "C161494",
        "term": "DDU",
        "synonyms": null,
        "definition": "A unit of measure for the concentration of fibrin degradation products in a sample, calculated based upon the mass of D-dimers contained within that sample. (NCI)"
      },
      {
        "code": "C68667",
        "term": "deg",
        "synonyms": "Degree Unit of Plane Angle, Degrees",
        "definition": "A unit of plane angle measurement equal to the length of the arc cut out by the angle, divided by the circumference of the circle, and multiplied by 360. The symbol for degrees is a small superscript circle. One radian is about 57 degrees and one degree is pi/180 radians.(NCI)"
      },
      {
        "code": "C161488",
        "term": "deg/mm",
        "synonyms": null,
        "definition": "A unit of rotation expressed as the number of degrees per unit of length equal to one millimeter."
      },
      {
        "code": "C166097",
        "term": "deg/s",
        "synonyms": null,
        "definition": "A unit of angular velocity defined as the number of degrees per unit of time equal to one second."
      },
      {
        "code": "C166098",
        "term": "deg2",
        "synonyms": "sq. deg.",
        "definition": "A unit of solid angle equal to approximately 3.0462x10^-4 steradians."
      },
      {
        "code": "C100899",
        "term": "DIOPTER",
        "synonyms": "Diopter",
        "definition": "A unit of measurement of the optical power of a curved mirror or lens represented by the inverse of the focal length in meters."
      },
      {
        "code": "C82483",
        "term": "DIP",
        "synonyms": "Dip Dosing Unit, Snuff Dosing Unit",
        "definition": "A dosing measurement based on the dip unit."
      },
      {
        "code": "C48490",
        "term": "DISK",
        "synonyms": "Disk Dosing Unit",
        "definition": "A dosing measurement based on the disk unit.(NCI)"
      },
      {
        "code": "C64697",
        "term": "dL",
        "synonyms": "Deciliter",
        "definition": "The unit of volume equal to one tenth of a liter. Accepted for use with the SI. (NCI)"
      },
      {
        "code": "C68685",
        "term": "dmol",
        "synonyms": "Decimole",
        "definition": "A unit of amount of substance equal to one tenth of a mole (1E-1 mole). (NCI)"
      },
      {
        "code": "C98719",
        "term": "DNA copies/mL",
        "synonyms": "DNA Copies per Milliliter",
        "definition": "The unit of concentration of deoxyribonucleic acid (DNA) copies expressed as a number of copies in unit volume equal to one milliliter."
      },
      {
        "code": "C170632",
        "term": "DNA copies/ug",
        "synonyms": null,
        "definition": "A unit of measurement equal to the number of deoxyribonucleic acid (DNA) copies per unit of mass equal to one microgram."
      },
      {
        "code": "C73710",
        "term": "DPM",
        "synonyms": "Disintegrations per Minute",
        "definition": "A unit of radioactive decay expressed in atoms of radioactive material that decay over a period of time equal to sixty seconds. (NCI)"
      },
      {
        "code": "C120846",
        "term": "dpm/0.5 mL",
        "synonyms": "Disintegrations per Minute per 0.5 Milliliter",
        "definition": "A unit of radioactive decay expressed in atoms of radioactive material that decay over a period of time equal to sixty seconds in a volume unit equal to a half milliliter."
      },
      {
        "code": "C117968",
        "term": "dpm/100 mg",
        "synonyms": "Disintegrations per Minute per 100 milligrams, dpm/cg",
        "definition": "A unit of radioactive decay expressed in atoms of radioactive material that decay over a period of time equal to sixty seconds in a mass unit equal to one hundred milligrams."
      },
      {
        "code": "C187969",
        "term": "dpm/g",
        "synonyms": "Disintegrations per Minute per Gram",
        "definition": "A unit of radioactive decay expressed in atoms of radioactive material that decay over a period of time equal to sixty seconds in a mass unit equal to one gram."
      },
      {
        "code": "C117969",
        "term": "dpm/mg",
        "synonyms": "Disintegrations per Minute per Milligram",
        "definition": "A unit of radioactive decay expressed in atoms of radioactive material that decay over a period of time equal to sixty seconds in a mass unit equal to one milligram."
      },
      {
        "code": "C117970",
        "term": "dpm/mL",
        "synonyms": "Disintegrations per Minute per Milliliter",
        "definition": "A unit of radioactive decay expressed in atoms of radioactive material that decay over a period of time equal to sixty seconds in a volume unit equal to one milliliter."
      },
      {
        "code": "C64564",
        "term": "dram",
        "synonyms": "Dram",
        "definition": "A unit of mass equal to 1/16 Avoirdupois ounce or 1/256 Avoirdupois pound. One dram equals approximately 1.7718451953125 grams.(NCI)"
      },
      {
        "code": "C161487",
        "term": "DRINK",
        "synonyms": "Drink Dosing Unit",
        "definition": "A dosing measurement based on the drink unit."
      },
      {
        "code": "C69441",
        "term": "DROP",
        "synonyms": "Drip",
        "definition": "A unit of measure of volume defined as the amount of liquid dispensed as one drop from a dropper dispenser. The volume of a drop depends on the physical properties of the liquid dispensed, the dispenser device, and the technique used to produce the drop. (NCI)"
      },
      {
        "code": "C48492",
        "term": "DRUM",
        "synonyms": "Drum Dosing Unit",
        "definition": "A dosing measurement based on the drum unit.(NCI)"
      },
      {
        "code": "C70470",
        "term": "dyn",
        "synonyms": "Dyne",
        "definition": "A unit of force defined as the force that accelerates a mass of one gram at the rate of one centimeter per second squared. One dyne is equal to 1E-5 Newton and 2.248E-6 pounds of force. (NCI)"
      },
      {
        "code": "C161491",
        "term": "ECL unit",
        "synonyms": "Electrochemiluminescence Unit",
        "definition": "A unit for measuring concentration or/and reactivity of a test substance as defined in the literature reference standard for the particular quantitative electrochemiluminescent method. (NCI)"
      },
      {
        "code": "C122205",
        "term": "EIA unit",
        "synonyms": "EIA value, Enzyme Immunoassay Unit",
        "definition": "A unit for measuring concentration or/and reactivity of a test substance (an antigen or antibody of interest) as defined in the literature reference standard for the particular quantitative enzyme immunoassay method."
      },
      {
        "code": "C70533",
        "term": "EID 50/dose",
        "synonyms": "50 Percent Embryo Infective Dose per Dose",
        "definition": "A potency unit for measuring infectious activity of a biologic product or an infectious agent preparation equal to the potency at which one dose of infectious material contains one 50 percent embryo infective dose.(NCI)"
      },
      {
        "code": "C120847",
        "term": "EID 50/mL",
        "synonyms": "50 Percent Embryo Infective Dose per Milliliter",
        "definition": "A potency unit equal to the potency at which one milliliter of preparation contains one 50 percent embryo infective dose."
      },
      {
        "code": "C130046",
        "term": "Ejaculate U",
        "synonyms": null,
        "definition": "A unit of volume equal to the amount of seminal fluid produced by a single ejaculation event."
      },
      {
        "code": "C68875",
        "term": "ELISA unit",
        "synonyms": "Enzyme-Linked Immunosorbent Assay Unit",
        "definition": "A unit for measuring concentration or/and reactivity of a test substance (an antigen or antibody of interest) as defined in the literature reference standard for the particular quantitative enzyme-linked immunosorbent assay method. The enzyme-linked immunosorbent assay unit is used to express potency of immunologically active substances and products, e.g. vaccines.(NCI)"
      },
      {
        "code": "C68876",
        "term": "ELISA unit/dose",
        "synonyms": "Enzyme-Linked Immunosorbent Assay Unit per Dose",
        "definition": "A unit for measuring potency of immunologically active substance in a product determined as reactivity in a quantitative immunoassay for particular antigen or antibody and expressed per quantity of preparation used as a single dose.(NCI)"
      },
      {
        "code": "C68877",
        "term": "ELISA unit/mL",
        "synonyms": "Enzyme-Linked Immunosorbent Assay Unit per Milliliter",
        "definition": "A unit for measuring potency of immunologically active substance in a product determined as reactivity in a quantitative immunoassay for particular antigen or antibody and expressed per unit volume equal to one milliliter.(NCI)"
      },
      {
        "code": "C186220",
        "term": "ENVELOPE",
        "synonyms": "Envelope Dosing Unit",
        "definition": "A dosing measurement based on the envelope unit."
      },
      {
        "code": "C64778",
        "term": "Enzyme U",
        "synonyms": "Enzyme Unit",
        "definition": "A unit of catalytic activity measurement defined as the quantity of a particular enzyme that catalyzes the transformation of one micromole of the substrate per minute under standard conditions for specified assay system."
      },
      {
        "code": "C154856",
        "term": "Enzyme U/g Hb",
        "synonyms": "Enzyme Unit per Gram of Hemoglobin",
        "definition": "A unit of concentration (biologic activity) equal to one enzyme unit of substance per gram of hemoglobin."
      },
      {
        "code": "C147130",
        "term": "Enzyme U/L",
        "synonyms": "Enzyme Unit/L",
        "definition": "Unit of catalytic activity concentration defined as activity equal to one enzyme unit per one liter of system volume."
      },
      {
        "code": "C156467",
        "term": "Enzyme U/m2",
        "synonyms": null,
        "definition": "A unit of concentration (catalytic activity) equal to one enzyme unit of substance per one square meter of surface area."
      },
      {
        "code": "C176384",
